ParticipantID,TrialNumber,BlockNumber,Synchrony,ClipID,VideoFile,SoundFile,SoundCategory,SyncRating,Accuracy,RT,ConditionID,BlockDuration,ExperimentDuration,Condition
4,1,1,NaN,40,1418_4Hz.avi,willow20_zero_4Hz.wav,willow,2,0,3.83529859999999,4,3.29838512666667,6.35843539666667,SyncTheta
4,2,2,NaN,2,1371_4Hz.avi,ep7_oneeighty_4Hz.wav,ep,2,1,1.26930210000046,4,3.29838512666667,6.35843539666667,AsyncTheta
4,3,3,NaN,23,1011_4Hz.avi,orch38_oneeighty_4Hz.wav,orch,2,1,1.12909039999977,4,3.29838512666667,6.35843539666667,AsyncTheta
4,4,NaN,NaN,7,1124_4Hz.avi,dar24_oneeighty_4Hz.wav,dar,1,0,1.41715629999999,4,3.29838512666667,6.35843539666667,AsyncTheta
4,5,NaN,NaN,28,1436_4Hz.avi,guitar31_oneeighty_4Hz.wav,guitar,1,0,1.71689340000012,4,3.29838512666667,6.35843539666667,AsyncTheta
4,6,NaN,NaN,26,1377_4Hz.avi,acoustic48_oneeighty_4Hz.wav,acoustic,2,1,1.63338039999962,4,3.29838512666667,6.35843539666667,AsyncTheta
4,7,NaN,NaN,44,1257_4Hz.avi,orch14_oneeighty_4Hz.wav,orch,1,0,0.616405499999928,4,3.29838512666667,6.35843539666667,AsyncTheta
4,8,NaN,NaN,45,1228_4Hz.avi,orch31_zero_4Hz.wav,orch,2,0,4.76277499999924,4,3.29838512666667,6.35843539666667,SyncTheta
4,9,NaN,NaN,14,1151_4Hz.avi,dar8_oneeighty_4Hz.wav,dar,1,0,1.39311170000019,4,3.29838512666667,6.35843539666667,AsyncTheta
4,10,NaN,NaN,32,1326_4Hz.avi,acoustic32_zero_4Hz.wav,acoustic,1,1,3.1505928000006,4,3.29838512666667,6.35843539666667,SyncTheta
4,11,NaN,NaN,6,1226_4Hz.avi,choir4_zero_4Hz.wav,choir,1,1,1.6122747999998,4,3.29838512666667,6.35843539666667,SyncTheta
4,12,NaN,NaN,33,1219_4Hz.avi,acoustic25_zero_4Hz.wav,acoustic,2,0,2.25461910000013,4,3.29838512666667,6.35843539666667,SyncTheta
4,13,NaN,NaN,25,1402_4Hz.avi,choir38_zero_4Hz.wav,choir,1,1,0.425152699999671,4,3.29838512666667,6.35843539666667,SyncTheta
4,14,NaN,NaN,8,1376_4Hz.avi,willow15_zero_4Hz.wav,willow,1,1,0.644480400000248,4,3.29838512666667,6.35843539666667,SyncTheta
4,15,NaN,NaN,9,1424_4Hz.avi,orch1_zero_4Hz.wav,orch,2,0,0.403757600000063,4,3.29838512666667,6.35843539666667,SyncTheta
4,16,NaN,NaN,48,1028_4Hz.avi,acoustic28_oneeighty_4Hz.wav,acoustic,1,0,0.677415300000575,4,3.29838512666667,6.35843539666667,AsyncTheta
4,1,NaN,NaN,37,1235_4Hz.avi,dar23_oneeighty_4Hz.wav,dar,1,0,0.373464599999352,4,1.452063985,6.35843539666667,AsyncTheta
4,2,NaN,NaN,4,1010_4Hz.avi,ep15_oneeighty_4Hz.wav,ep,1,0,0.748463400000219,4,1.452063985,6.35843539666667,AsyncTheta
4,3,NaN,NaN,5,1332_4Hz.avi,acoustic44_oneeighty_4Hz.wav,acoustic,2,1,0.87922030000027,4,1.452063985,6.35843539666667,AsyncTheta
4,4,NaN,NaN,35,1211_4Hz.avi,choir33_oneeighty_4Hz.wav,choir,1,0,0.732492500000262,4,1.452063985,6.35843539666667,AsyncTheta
4,5,NaN,NaN,30,1282_4Hz.avi,dar1_zero_4Hz.wav,dar,1,1,0.562638500000503,4,1.452063985,6.35843539666667,SyncTheta
4,6,NaN,NaN,39,1088_4Hz.avi,acoustic47_zero_4Hz.wav,acoustic,1,1,0.535268700000415,4,1.452063985,6.35843539666667,SyncTheta
4,7,NaN,NaN,21,1291_4Hz.avi,acoustic11_zero_4Hz.wav,acoustic,2,0,0.684895100000176,4,1.452063985,6.35843539666667,SyncTheta
4,8,NaN,NaN,19,1188_4Hz.avi,choir7_zero_4Hz.wav,choir,1,1,0.664888599999358,4,1.452063985,6.35843539666667,SyncTheta
4,9,NaN,NaN,47,1261_4Hz.avi,willow10_oneeighty_4Hz.wav,willow,2,1,0.672110999999859,4,1.452063985,6.35843539666667,AsyncTheta
4,10,NaN,NaN,15,1302_4Hz.avi,synth25_zero_4Hz.wav,synth,1,1,0.529136699999981,4,1.452063985,6.35843539666667,SyncTheta
4,11,NaN,NaN,38,1068_4Hz.avi,orch29_zero_4Hz.wav,orch,2,0,0.615862599999673,4,1.452063985,6.35843539666667,SyncTheta
4,12,NaN,NaN,11,1001_4Hz.avi,dar22_oneeighty_4Hz.wav,dar,1,0,0.580876600000011,4,1.452063985,6.35843539666667,AsyncTheta
4,13,NaN,NaN,41,1092_4Hz.avi,guitar37_zero_4Hz.wav,guitar,1,1,0.479454699999224,4,1.452063985,6.35843539666667,SyncTheta
4,14,NaN,NaN,10,1100_4Hz.avi,ep10_oneeighty_4Hz.wav,ep,2,1,0.563149800000247,4,1.452063985,6.35843539666667,AsyncTheta
4,15,NaN,NaN,22,1351_4Hz.avi,acoustic1_oneeighty_4Hz.wav,acoustic,2,1,0.931312900000194,4,1.452063985,6.35843539666667,AsyncTheta
4,16,NaN,NaN,16,1285_4Hz.avi,acoustic37_zero_4Hz.wav,acoustic,1,1,1.21287389999998,4,1.452063985,6.35843539666667,SyncTheta
4,1,NaN,NaN,18,1446_4Hz.avi,synth5_oneeighty_4Hz.wav,synth,1,0,0.551148800000192,4,1.39180663166667,6.35843539666667,AsyncTheta
4,2,NaN,NaN,29,1281_4Hz.avi,ep34_zero_4Hz.wav,ep,2,0,0.503968600000007,4,1.39180663166667,6.35843539666667,SyncTheta
4,3,NaN,NaN,24,1251_4Hz.avi,willow16_oneeighty_4Hz.wav,willow,1,0,0.97730650000085,4,1.39180663166667,6.35843539666667,AsyncTheta
4,4,NaN,NaN,36,1307_4Hz.avi,dar13_oneeighty_4Hz.wav,dar,2,1,0.976447099999859,4,1.39180663166667,6.35843539666667,AsyncTheta
4,5,NaN,NaN,12,1102_4Hz.avi,dar2_zero_4Hz.wav,dar,2,0,0.98549439999988,4,1.39180663166667,6.35843539666667,SyncTheta
4,6,NaN,NaN,17,1043_4Hz.avi,ep8_zero_4Hz.wav,ep,1,1,0.871095100000275,4,1.39180663166667,6.35843539666667,SyncTheta
4,7,NaN,NaN,34,1409_4Hz.avi,willow12_oneeighty_4Hz.wav,willow,2,1,0.597813700000188,4,1.39180663166667,6.35843539666667,AsyncTheta
4,8,NaN,NaN,13,1075_4Hz.avi,orch19_zero_4Hz.wav,orch,2,0,0.377467500000421,4,1.39180663166667,6.35843539666667,SyncTheta
4,9,NaN,NaN,20,1245_4Hz.avi,guitar48_zero_4Hz.wav,guitar,1,1,0.574192899999616,4,1.39180663166667,6.35843539666667,SyncTheta
4,10,NaN,NaN,43,1438_4Hz.avi,choir18_oneeighty_4Hz.wav,choir,1,0,0.505541200000152,4,1.39180663166667,6.35843539666667,AsyncTheta
4,11,NaN,NaN,31,1246_4Hz.avi,guitar47_zero_4Hz.wav,guitar,1,1,0.546173499999895,4,1.39180663166667,6.35843539666667,SyncTheta
4,12,NaN,NaN,1,1267_4Hz.avi,dar6_oneeighty_4Hz.wav,dar,2,1,0.593345199999931,4,1.39180663166667,6.35843539666667,AsyncTheta
4,13,NaN,NaN,27,1120_4Hz.avi,choir36_zero_4Hz.wav,choir,1,1,0.544127199999821,4,1.39180663166667,6.35843539666667,SyncTheta
4,14,NaN,NaN,46,1400_4Hz.avi,ep44_zero_4Hz.wav,ep,2,0,0.560944700000618,4,1.39180663166667,6.35843539666667,SyncTheta
4,15,NaN,NaN,42,1056_4Hz.avi,acoustic12_oneeighty_4Hz.wav,acoustic,2,1,1.08754060000047,4,1.39180663166667,6.35843539666667,AsyncTheta
4,16,NaN,NaN,3,1194_4Hz.avi,willow13_oneeighty_4Hz.wav,willow,1,0,0.556060500000058,4,1.39180663166667,6.35843539666667,AsyncTheta
5,1,1,NaN,40,1418_4Hz.avi,willow20_zero_4Hz.wav,willow,1,1,1.3557123999999,5,2.84857868666667,5.82908890833333,SyncTheta
5,2,2,NaN,2,1371_4Hz.avi,ep7_zero_4Hz.wav,ep,2,0,0.729297299999871,5,2.84857868666667,5.82908890833333,SyncTheta
5,3,3,NaN,23,1011_4Hz.avi,orch38_oneeighty_4Hz.wav,orch,1,0,0.600798800000121,5,2.84857868666667,5.82908890833333,AsyncTheta
5,4,NaN,NaN,7,1124_4Hz.avi,dar24_zero_4Hz.wav,dar,2,0,0.383814199999961,5,2.84857868666667,5.82908890833333,SyncTheta
5,5,NaN,NaN,28,1436_4Hz.avi,guitar31_oneeighty_4Hz.wav,guitar,2,1,0.571843300000182,5,2.84857868666667,5.82908890833333,AsyncTheta
5,6,NaN,NaN,26,1377_4Hz.avi,acoustic48_zero_4Hz.wav,acoustic,1,1,0.286446499999784,5,2.84857868666667,5.82908890833333,SyncTheta
5,7,NaN,NaN,44,1257_4Hz.avi,orch14_oneeighty_4Hz.wav,orch,2,1,0.531263200000012,5,2.84857868666667,5.82908890833333,AsyncTheta
5,8,NaN,NaN,45,1228_4Hz.avi,orch31_oneeighty_4Hz.wav,orch,1,0,0.484685599999921,5,2.84857868666667,5.82908890833333,AsyncTheta
5,9,NaN,NaN,14,1151_4Hz.avi,dar8_oneeighty_4Hz.wav,dar,2,1,0.352080199999818,5,2.84857868666667,5.82908890833333,AsyncTheta
5,10,NaN,NaN,32,1326_4Hz.avi,acoustic32_zero_4Hz.wav,acoustic,1,1,0.379681899999923,5,2.84857868666667,5.82908890833333,SyncTheta
5,11,NaN,NaN,6,1226_4Hz.avi,choir4_zero_4Hz.wav,choir,1,1,0.21489930000007,5,2.84857868666667,5.82908890833333,SyncTheta
5,12,NaN,NaN,33,1219_4Hz.avi,acoustic25_oneeighty_4Hz.wav,acoustic,1,0,0.683524099999886,5,2.84857868666667,5.82908890833333,AsyncTheta
5,13,NaN,NaN,25,1402_4Hz.avi,choir38_oneeighty_4Hz.wav,choir,2,1,0.23806710000008,5,2.84857868666667,5.82908890833333,AsyncTheta
5,14,NaN,NaN,8,1376_4Hz.avi,willow15_oneeighty_4Hz.wav,willow,2,1,0.419764600000235,5,2.84857868666667,5.82908890833333,AsyncTheta
5,15,NaN,NaN,9,1424_4Hz.avi,orch1_zero_4Hz.wav,orch,1,1,0.267438100000163,5,2.84857868666667,5.82908890833333,SyncTheta
5,16,NaN,NaN,48,1028_4Hz.avi,acoustic28_zero_4Hz.wav,acoustic,2,0,0.249645099999725,5,2.84857868666667,5.82908890833333,SyncTheta
5,1,NaN,NaN,37,1235_4Hz.avi,dar23_zero_4Hz.wav,dar,1,1,1.36083359999975,5,1.344014635,5.82908890833333,SyncTheta
5,2,NaN,NaN,4,1010_4Hz.avi,ep15_zero_4Hz.wav,ep,2,0,0.713925000000017,5,1.344014635,5.82908890833333,SyncTheta
5,3,NaN,NaN,5,1332_4Hz.avi,acoustic44_zero_4Hz.wav,acoustic,2,0,0.337939500000175,5,1.344014635,5.82908890833333,SyncTheta
5,4,NaN,NaN,35,1211_4Hz.avi,choir33_oneeighty_4Hz.wav,choir,1,0,0.227277200000117,5,1.344014635,5.82908890833333,AsyncTheta
5,5,NaN,NaN,30,1282_4Hz.avi,dar1_oneeighty_4Hz.wav,dar,1,0,0.268343100000038,5,1.344014635,5.82908890833333,AsyncTheta
5,6,NaN,NaN,39,1088_4Hz.avi,acoustic47_oneeighty_4Hz.wav,acoustic,2,1,0.291214400000172,5,1.344014635,5.82908890833333,AsyncTheta
5,7,NaN,NaN,21,1291_4Hz.avi,acoustic11_zero_4Hz.wav,acoustic,1,1,0.247694600000159,5,1.344014635,5.82908890833333,SyncTheta
5,8,NaN,NaN,19,1188_4Hz.avi,choir7_oneeighty_4Hz.wav,choir,2,1,0.287123699999938,5,1.344014635,5.82908890833333,AsyncTheta
5,9,NaN,NaN,47,1261_4Hz.avi,willow10_zero_4Hz.wav,willow,1,1,0.29842409999992,5,1.344014635,5.82908890833333,SyncTheta
5,10,NaN,NaN,15,1302_4Hz.avi,synth25_zero_4Hz.wav,synth,2,0,0.223333500000081,5,1.344014635,5.82908890833333,SyncTheta
5,11,NaN,NaN,38,1068_4Hz.avi,orch29_oneeighty_4Hz.wav,orch,1,0,0.570756399999937,5,1.344014635,5.82908890833333,AsyncTheta
5,12,NaN,NaN,11,1001_4Hz.avi,dar22_zero_4Hz.wav,dar,2,0,0.595913800000289,5,1.344014635,5.82908890833333,SyncTheta
5,13,NaN,NaN,41,1092_4Hz.avi,guitar37_zero_4Hz.wav,guitar,2,0,0.215774199999942,5,1.344014635,5.82908890833333,SyncTheta
5,14,NaN,NaN,10,1100_4Hz.avi,ep10_oneeighty_4Hz.wav,ep,1,0,0.389510599999994,5,1.344014635,5.82908890833333,AsyncTheta
5,15,NaN,NaN,22,1351_4Hz.avi,acoustic1_oneeighty_4Hz.wav,acoustic,2,1,0.61148060000005,5,1.344014635,5.82908890833333,AsyncTheta
5,16,NaN,NaN,16,1285_4Hz.avi,acoustic37_oneeighty_4Hz.wav,acoustic,1,0,0.391474600000038,5,1.344014635,5.82908890833333,AsyncTheta
5,1,NaN,NaN,18,1446_4Hz.avi,synth5_oneeighty_4Hz.wav,synth,2,1,0.601685799999814,5,1.34015856,5.82908890833333,AsyncTheta
5,2,NaN,NaN,29,1281_4Hz.avi,ep34_oneeighty_4Hz.wav,ep,1,0,0.457740899999862,5,1.34015856,5.82908890833333,AsyncTheta
5,3,NaN,NaN,24,1251_4Hz.avi,willow16_oneeighty_4Hz.wav,willow,2,1,0.370098100000178,5,1.34015856,5.82908890833333,AsyncTheta
5,4,NaN,NaN,36,1307_4Hz.avi,dar13_oneeighty_4Hz.wav,dar,2,1,0.455929600000218,5,1.34015856,5.82908890833333,AsyncTheta
5,5,NaN,NaN,12,1102_4Hz.avi,dar2_oneeighty_4Hz.wav,dar,1,0,0.268297399999938,5,1.34015856,5.82908890833333,AsyncTheta
5,6,NaN,NaN,17,1043_4Hz.avi,ep8_oneeighty_4Hz.wav,ep,2,1,0.32398749999993,5,1.34015856,5.82908890833333,AsyncTheta
5,7,NaN,NaN,34,1409_4Hz.avi,willow12_zero_4Hz.wav,willow,1,1,0.251282600000195,5,1.34015856,5.82908890833333,SyncTheta
5,8,NaN,NaN,13,1075_4Hz.avi,orch19_zero_4Hz.wav,orch,1,1,1.13403179999978,5,1.34015856,5.82908890833333,SyncTheta
5,9,NaN,NaN,20,1245_4Hz.avi,guitar48_zero_4Hz.wav,guitar,2,0,0.585776599999917,5,1.34015856,5.82908890833333,SyncTheta
5,10,NaN,NaN,43,1438_4Hz.avi,choir18_oneeighty_4Hz.wav,choir,2,1,0.400332899999739,5,1.34015856,5.82908890833333,AsyncTheta
5,11,NaN,NaN,31,1246_4Hz.avi,guitar47_oneeighty_4Hz.wav,guitar,1,0,0.293035099999997,5,1.34015856,5.82908890833333,AsyncTheta
5,12,NaN,NaN,1,1267_4Hz.avi,dar6_zero_4Hz.wav,dar,1,1,0.607436799999959,5,1.34015856,5.82908890833333,SyncTheta
5,13,NaN,NaN,27,1120_4Hz.avi,choir36_zero_4Hz.wav,choir,2,0,0.573053900000104,5,1.34015856,5.82908890833333,SyncTheta
5,14,NaN,NaN,46,1400_4Hz.avi,ep44_zero_4Hz.wav,ep,1,1,0.770974400000341,5,1.34015856,5.82908890833333,SyncTheta
5,15,NaN,NaN,42,1056_4Hz.avi,acoustic12_zero_4Hz.wav,acoustic,1,1,0.237326099999791,5,1.34015856,5.82908890833333,SyncTheta
5,16,NaN,NaN,3,1194_4Hz.avi,willow13_zero_4Hz.wav,willow,1,1,0.283390999999938,5,1.34015856,5.82908890833333,SyncTheta
6,1,1,NaN,40,1418_4Hz.avi,willow20_oneeighty_4Hz.wav,willow,2,1,1.43357879999985,6,3.385218295,6.25283971666667,AsyncTheta
6,2,2,NaN,2,1371_4Hz.avi,ep7_zero_4Hz.wav,ep,1,1,0.753427400000874,6,3.385218295,6.25283971666667,SyncTheta
6,3,3,NaN,23,1011_4Hz.avi,orch38_zero_4Hz.wav,orch,1,1,0.884808899999371,6,3.385218295,6.25283971666667,SyncTheta
6,4,NaN,NaN,7,1124_4Hz.avi,dar24_zero_4Hz.wav,dar,2,0,0.316221400000359,6,3.385218295,6.25283971666667,SyncTheta
6,5,NaN,NaN,28,1436_4Hz.avi,guitar31_oneeighty_4Hz.wav,guitar,1,0,0.460106800000176,6,3.385218295,6.25283971666667,AsyncTheta
6,6,NaN,NaN,26,1377_4Hz.avi,acoustic48_oneeighty_4Hz.wav,acoustic,2,1,0.255039599999691,6,3.385218295,6.25283971666667,AsyncTheta
6,7,NaN,NaN,44,1257_4Hz.avi,orch14_oneeighty_4Hz.wav,orch,1,0,0.456627699999444,6,3.385218295,6.25283971666667,AsyncTheta
6,8,NaN,NaN,45,1228_4Hz.avi,orch31_zero_4Hz.wav,orch,2,0,0.271199799999522,6,3.385218295,6.25283971666667,SyncTheta
6,9,NaN,NaN,14,1151_4Hz.avi,dar8_oneeighty_4Hz.wav,dar,1,0,0.554019500000322,6,3.385218295,6.25283971666667,AsyncTheta
6,10,NaN,NaN,32,1326_4Hz.avi,acoustic32_oneeighty_4Hz.wav,acoustic,2,1,0.198868200000106,6,3.385218295,6.25283971666667,AsyncTheta
6,11,NaN,NaN,6,1226_4Hz.avi,choir4_zero_4Hz.wav,choir,2,0,0.934693100000004,6,3.385218295,6.25283971666667,SyncTheta
6,12,NaN,NaN,33,1219_4Hz.avi,acoustic25_oneeighty_4Hz.wav,acoustic,2,1,0.35417679999955,6,3.385218295,6.25283971666667,AsyncTheta
6,13,NaN,NaN,25,1402_4Hz.avi,choir38_zero_4Hz.wav,choir,1,1,0.278429099999812,6,3.385218295,6.25283971666667,SyncTheta
6,14,NaN,NaN,8,1376_4Hz.avi,willow15_zero_4Hz.wav,willow,2,0,0.361122799999976,6,3.385218295,6.25283971666667,SyncTheta
6,15,NaN,NaN,9,1424_4Hz.avi,orch1_oneeighty_4Hz.wav,orch,2,1,0.340665800000352,6,3.385218295,6.25283971666667,AsyncTheta
6,16,NaN,NaN,48,1028_4Hz.avi,acoustic28_zero_4Hz.wav,acoustic,1,1,0.962904099999832,6,3.385218295,6.25283971666667,SyncTheta
6,1,NaN,NaN,37,1235_4Hz.avi,dar23_zero_4Hz.wav,dar,1,1,2.36291369999981,6,1.39261367333333,6.25283971666667,SyncTheta
6,2,NaN,NaN,4,1010_4Hz.avi,ep15_zero_4Hz.wav,ep,1,1,0.538877799999682,6,1.39261367333333,6.25283971666667,SyncTheta
6,3,NaN,NaN,5,1332_4Hz.avi,acoustic44_zero_4Hz.wav,acoustic,1,1,0.370875700000397,6,1.39261367333333,6.25283971666667,SyncTheta
6,4,NaN,NaN,35,1211_4Hz.avi,choir33_oneeighty_4Hz.wav,choir,2,1,0.290893200000028,6,1.39261367333333,6.25283971666667,AsyncTheta
6,5,NaN,NaN,30,1282_4Hz.avi,dar1_zero_4Hz.wav,dar,1,1,0.333895400000074,6,1.39261367333333,6.25283971666667,SyncTheta
6,6,NaN,NaN,39,1088_4Hz.avi,acoustic47_oneeighty_4Hz.wav,acoustic,1,0,0.356003500000043,6,1.39261367333333,6.25283971666667,AsyncTheta
6,7,NaN,NaN,21,1291_4Hz.avi,acoustic11_oneeighty_4Hz.wav,acoustic,2,1,0.318590900000345,6,1.39261367333333,6.25283971666667,AsyncTheta
6,8,NaN,NaN,19,1188_4Hz.avi,choir7_zero_4Hz.wav,choir,2,0,0.288699099999576,6,1.39261367333333,6.25283971666667,SyncTheta
6,9,NaN,NaN,47,1261_4Hz.avi,willow10_oneeighty_4Hz.wav,willow,1,0,0.529870599999413,6,1.39261367333333,6.25283971666667,AsyncTheta
6,10,NaN,NaN,15,1302_4Hz.avi,synth25_zero_4Hz.wav,synth,1,1,0.802400699999453,6,1.39261367333333,6.25283971666667,SyncTheta
6,11,NaN,NaN,38,1068_4Hz.avi,orch29_zero_4Hz.wav,orch,1,1,0.0642608000007385,6,1.39261367333333,6.25283971666667,SyncTheta
6,12,NaN,NaN,11,1001_4Hz.avi,dar22_oneeighty_4Hz.wav,dar,2,1,0.364182899999832,6,1.39261367333333,6.25283971666667,AsyncTheta
6,13,NaN,NaN,41,1092_4Hz.avi,guitar37_oneeighty_4Hz.wav,guitar,1,0,0.590636100000665,6,1.39261367333333,6.25283971666667,AsyncTheta
6,14,NaN,NaN,10,1100_4Hz.avi,ep10_zero_4Hz.wav,ep,2,0,0.226682200000141,6,1.39261367333333,6.25283971666667,SyncTheta
6,15,NaN,NaN,22,1351_4Hz.avi,acoustic1_oneeighty_4Hz.wav,acoustic,2,1,0.704785799999627,6,1.39261367333333,6.25283971666667,AsyncTheta
6,16,NaN,NaN,16,1285_4Hz.avi,acoustic37_oneeighty_4Hz.wav,acoustic,2,1,0.646168700000089,6,1.39261367333333,6.25283971666667,AsyncTheta
6,1,NaN,NaN,18,1446_4Hz.avi,synth5_zero_4Hz.wav,synth,1,1,0.864435499999672,6,1.33061284333333,6.25283971666667,SyncTheta
6,2,NaN,NaN,29,1281_4Hz.avi,ep34_zero_4Hz.wav,ep,1,1,0.472019300000284,6,1.33061284333333,6.25283971666667,SyncTheta
6,3,NaN,NaN,24,1251_4Hz.avi,willow16_oneeighty_4Hz.wav,willow,1,0,0.710374199999933,6,1.33061284333333,6.25283971666667,AsyncTheta
6,4,NaN,NaN,36,1307_4Hz.avi,dar13_oneeighty_4Hz.wav,dar,1,0,0.542847200000324,6,1.33061284333333,6.25283971666667,AsyncTheta
6,5,NaN,NaN,12,1102_4Hz.avi,dar2_oneeighty_4Hz.wav,dar,2,1,0.291971700000431,6,1.33061284333333,6.25283971666667,AsyncTheta
6,6,NaN,NaN,17,1043_4Hz.avi,ep8_oneeighty_4Hz.wav,ep,1,0,0.380282099999931,6,1.33061284333333,6.25283971666667,AsyncTheta
6,7,NaN,NaN,34,1409_4Hz.avi,willow12_zero_4Hz.wav,willow,2,0,0.277745999999752,6,1.33061284333333,6.25283971666667,SyncTheta
6,8,NaN,NaN,13,1075_4Hz.avi,orch19_zero_4Hz.wav,orch,2,0,0.24278779999986,6,1.33061284333333,6.25283971666667,SyncTheta
6,9,NaN,NaN,20,1245_4Hz.avi,guitar48_zero_4Hz.wav,guitar,1,1,0.322476399999687,6,1.33061284333333,6.25283971666667,SyncTheta
6,10,NaN,NaN,43,1438_4Hz.avi,choir18_oneeighty_4Hz.wav,choir,1,0,0.238173500000812,6,1.33061284333333,6.25283971666667,AsyncTheta
6,11,NaN,NaN,31,1246_4Hz.avi,guitar47_zero_4Hz.wav,guitar,1,1,0.369784799999252,6,1.33061284333333,6.25283971666667,SyncTheta
6,12,NaN,NaN,1,1267_4Hz.avi,dar6_zero_4Hz.wav,dar,1,1,0.232234099999914,6,1.33061284333333,6.25283971666667,SyncTheta
6,13,NaN,NaN,27,1120_4Hz.avi,choir36_oneeighty_4Hz.wav,choir,2,1,0.529831699999704,6,1.33061284333333,6.25283971666667,AsyncTheta
6,14,NaN,NaN,46,1400_4Hz.avi,ep44_oneeighty_4Hz.wav,ep,1,0,1.3890849999998,6,1.33061284333333,6.25283971666667,AsyncTheta
6,15,NaN,NaN,42,1056_4Hz.avi,acoustic12_oneeighty_4Hz.wav,acoustic,2,1,0.281343700000434,6,1.33061284333333,6.25283971666667,AsyncTheta
6,16,NaN,NaN,3,1194_4Hz.avi,willow13_zero_4Hz.wav,willow,1,1,0.302009800000633,6,1.33061284333333,6.25283971666667,SyncTheta
7,1,1,NaN,40,1418_4Hz.avi,willow20_zero_4Hz.wav,willow,2,0,10.8149259999991,7,3.91593667333333,9.25811622666667,SyncTheta
7,2,2,NaN,2,1371_4Hz.avi,ep7_zero_4Hz.wav,ep,1,1,2.88228660000095,7,3.91593667333333,9.25811622666667,SyncTheta
7,3,3,NaN,23,1011_4Hz.avi,orch38_oneeighty_4Hz.wav,orch,1,0,4.01387989999967,7,3.91593667333333,9.25811622666667,AsyncTheta
7,4,NaN,NaN,7,1124_4Hz.avi,dar24_zero_4Hz.wav,dar,2,0,0.838149500001236,7,3.91593667333333,9.25811622666667,SyncTheta
7,5,NaN,NaN,28,1436_4Hz.avi,guitar31_oneeighty_4Hz.wav,guitar,2,1,0.929589299999861,7,3.91593667333333,9.25811622666667,AsyncTheta
7,6,NaN,NaN,26,1377_4Hz.avi,acoustic48_zero_4Hz.wav,acoustic,2,0,1.11183320000055,7,3.91593667333333,9.25811622666667,SyncTheta
7,7,NaN,NaN,44,1257_4Hz.avi,orch14_oneeighty_4Hz.wav,orch,2,1,0.90203289999954,7,3.91593667333333,9.25811622666667,AsyncTheta
7,8,NaN,NaN,45,1228_4Hz.avi,orch31_zero_4Hz.wav,orch,1,1,1.00011710000035,7,3.91593667333333,9.25811622666667,SyncTheta
7,9,NaN,NaN,14,1151_4Hz.avi,dar8_oneeighty_4Hz.wav,dar,2,1,0.454513299999235,7,3.91593667333333,9.25811622666667,AsyncTheta
7,10,NaN,NaN,32,1326_4Hz.avi,acoustic32_zero_4Hz.wav,acoustic,2,0,0.86525470000015,7,3.91593667333333,9.25811622666667,SyncTheta
7,11,NaN,NaN,6,1226_4Hz.avi,choir4_oneeighty_4Hz.wav,choir,1,0,0.621821400000044,7,3.91593667333333,9.25811622666667,AsyncTheta
7,12,NaN,NaN,33,1219_4Hz.avi,acoustic25_zero_4Hz.wav,acoustic,1,1,0.462565300000279,7,3.91593667333333,9.25811622666667,SyncTheta
7,13,NaN,NaN,25,1402_4Hz.avi,choir38_zero_4Hz.wav,choir,1,1,0.557773000000452,7,3.91593667333333,9.25811622666667,SyncTheta
7,14,NaN,NaN,8,1376_4Hz.avi,willow15_oneeighty_4Hz.wav,willow,2,1,0.425806400000511,7,3.91593667333333,9.25811622666667,AsyncTheta
7,15,NaN,NaN,9,1424_4Hz.avi,orch1_oneeighty_4Hz.wav,orch,2,1,1.24838049999926,7,3.91593667333333,9.25811622666667,AsyncTheta
7,16,NaN,NaN,48,1028_4Hz.avi,acoustic28_oneeighty_4Hz.wav,acoustic,1,0,0.700485899998966,7,3.91593667333333,9.25811622666667,AsyncTheta
7,1,NaN,NaN,37,1235_4Hz.avi,dar23_zero_4Hz.wav,dar,2,0,1.63958150000144,7,3.792938235,9.25811622666667,SyncTheta
7,2,NaN,NaN,4,1010_4Hz.avi,ep15_zero_4Hz.wav,ep,1,1,0.366860699999961,7,3.792938235,9.25811622666667,SyncTheta
7,3,NaN,NaN,5,1332_4Hz.avi,acoustic44_oneeighty_4Hz.wav,acoustic,1,0,0.694946699999491,7,3.792938235,9.25811622666667,AsyncTheta
7,4,NaN,NaN,35,1211_4Hz.avi,choir33_zero_4Hz.wav,choir,2,0,0.659528099999079,7,3.792938235,9.25811622666667,SyncTheta
7,5,NaN,NaN,30,1282_4Hz.avi,dar1_zero_4Hz.wav,dar,1,1,0.635845200000404,7,3.792938235,9.25811622666667,SyncTheta
7,6,NaN,NaN,39,1088_4Hz.avi,acoustic47_oneeighty_4Hz.wav,acoustic,1,0,0.501762699999745,7,3.792938235,9.25811622666667,AsyncTheta
7,7,NaN,NaN,21,1291_4Hz.avi,acoustic11_zero_4Hz.wav,acoustic,1,1,0.544181999999637,7,3.792938235,9.25811622666667,SyncTheta
7,8,NaN,NaN,19,1188_4Hz.avi,choir7_oneeighty_4Hz.wav,choir,1,0,0.629463600000236,7,3.792938235,9.25811622666667,AsyncTheta
7,9,NaN,NaN,47,1261_4Hz.avi,willow10_oneeighty_4Hz.wav,willow,1,0,0.564942500001052,7,3.792938235,9.25811622666667,AsyncTheta
7,10,NaN,NaN,15,1302_4Hz.avi,synth25_zero_4Hz.wav,synth,2,0,0.635127200001079,7,3.792938235,9.25811622666667,SyncTheta
7,11,NaN,NaN,38,1068_4Hz.avi,orch29_oneeighty_4Hz.wav,orch,2,1,0.471931300000506,7,3.792938235,9.25811622666667,AsyncTheta
7,12,NaN,NaN,11,1001_4Hz.avi,dar22_zero_4Hz.wav,dar,2,0,0.390807199999472,7,3.792938235,9.25811622666667,SyncTheta
7,13,NaN,NaN,41,1092_4Hz.avi,guitar37_oneeighty_4Hz.wav,guitar,1,0,0.653936599999724,7,3.792938235,9.25811622666667,AsyncTheta
7,14,NaN,NaN,10,1100_4Hz.avi,ep10_zero_4Hz.wav,ep,2,0,0.426284500001202,7,3.792938235,9.25811622666667,SyncTheta
7,15,NaN,NaN,22,1351_4Hz.avi,acoustic1_oneeighty_4Hz.wav,acoustic,2,1,0.705266899998605,7,3.792938235,9.25811622666667,AsyncTheta
7,16,NaN,NaN,16,1285_4Hz.avi,acoustic37_oneeighty_4Hz.wav,acoustic,2,1,0.400730999999723,7,3.792938235,9.25811622666667,AsyncTheta
7,1,NaN,NaN,18,1446_4Hz.avi,synth5_oneeighty_4Hz.wav,synth,1,0,0.644792799999777,7,1.40479976166667,9.25811622666667,AsyncTheta
7,2,NaN,NaN,29,1281_4Hz.avi,ep34_zero_4Hz.wav,ep,2,0,0.400185700000293,7,1.40479976166667,9.25811622666667,SyncTheta
7,3,NaN,NaN,24,1251_4Hz.avi,willow16_zero_4Hz.wav,willow,2,0,0.613700200001404,7,1.40479976166667,9.25811622666667,SyncTheta
7,4,NaN,NaN,36,1307_4Hz.avi,dar13_zero_4Hz.wav,dar,1,1,0.619800000000396,7,1.40479976166667,9.25811622666667,SyncTheta
7,5,NaN,NaN,12,1102_4Hz.avi,dar2_oneeighty_4Hz.wav,dar,1,0,0.539839000000939,7,1.40479976166667,9.25811622666667,AsyncTheta
7,6,NaN,NaN,17,1043_4Hz.avi,ep8_zero_4Hz.wav,ep,1,1,0.366796700000123,7,1.40479976166667,9.25811622666667,SyncTheta
7,7,NaN,NaN,34,1409_4Hz.avi,willow12_oneeighty_4Hz.wav,willow,2,1,1.21867990000101,7,1.40479976166667,9.25811622666667,AsyncTheta
7,8,NaN,NaN,13,1075_4Hz.avi,orch19_oneeighty_4Hz.wav,orch,1,0,0.637715799999569,7,1.40479976166667,9.25811622666667,AsyncTheta
7,9,NaN,NaN,20,1245_4Hz.avi,guitar48_oneeighty_4Hz.wav,guitar,1,0,0.420829000000595,7,1.40479976166667,9.25811622666667,AsyncTheta
7,10,NaN,NaN,43,1438_4Hz.avi,choir18_oneeighty_4Hz.wav,choir,2,1,0.382818800000678,7,1.40479976166667,9.25811622666667,AsyncTheta
7,11,NaN,NaN,31,1246_4Hz.avi,guitar47_zero_4Hz.wav,guitar,2,0,0.602312700000766,7,1.40479976166667,9.25811622666667,SyncTheta
7,12,NaN,NaN,1,1267_4Hz.avi,dar6_zero_4Hz.wav,dar,1,1,0.395546600000671,7,1.40479976166667,9.25811622666667,SyncTheta
7,13,NaN,NaN,27,1120_4Hz.avi,choir36_oneeighty_4Hz.wav,choir,1,0,0.488334300000133,7,1.40479976166667,9.25811622666667,AsyncTheta
7,14,NaN,NaN,46,1400_4Hz.avi,ep44_oneeighty_4Hz.wav,ep,1,0,1.37215610000021,7,1.40479976166667,9.25811622666667,AsyncTheta
7,15,NaN,NaN,42,1056_4Hz.avi,acoustic12_zero_4Hz.wav,acoustic,2,0,0.412784699999975,7,1.40479976166667,9.25811622666667,SyncTheta
7,16,NaN,NaN,3,1194_4Hz.avi,willow13_zero_4Hz.wav,willow,1,1,0.505465300000651,7,1.40479976166667,9.25811622666667,SyncTheta
8,1,1,NaN,40,1418_4Hz.avi,willow20_zero_4Hz.wav,willow,2,0,3.16772680000577,8,1.585054605,4.39485775833333,SyncTheta
8,2,2,NaN,2,1371_4Hz.avi,ep7_zero_4Hz.wav,ep,1,1,0.779423300002236,8,1.585054605,4.39485775833333,SyncTheta
8,3,3,NaN,23,1011_4Hz.avi,orch38_oneeighty_4Hz.wav,orch,2,1,1.01375440000265,8,1.585054605,4.39485775833333,AsyncTheta
8,4,NaN,NaN,7,1124_4Hz.avi,dar24_zero_4Hz.wav,dar,1,1,0.569916000007652,8,1.585054605,4.39485775833333,SyncTheta
8,5,NaN,NaN,28,1436_4Hz.avi,guitar31_zero_4Hz.wav,guitar,2,0,1.74748900000122,8,1.585054605,4.39485775833333,SyncTheta
8,6,NaN,NaN,26,1377_4Hz.avi,acoustic48_zero_4Hz.wav,acoustic,1,1,0.592389700002968,8,1.585054605,4.39485775833333,SyncTheta
8,7,NaN,NaN,44,1257_4Hz.avi,orch14_zero_4Hz.wav,orch,1,1,1.90330219999305,8,1.585054605,4.39485775833333,SyncTheta
8,8,NaN,NaN,45,1228_4Hz.avi,orch31_oneeighty_4Hz.wav,orch,2,1,0.808185600006254,8,1.585054605,4.39485775833333,AsyncTheta
8,9,NaN,NaN,14,1151_4Hz.avi,dar8_oneeighty_4Hz.wav,dar,2,1,0.312541599996621,8,1.585054605,4.39485775833333,AsyncTheta
8,10,NaN,NaN,32,1326_4Hz.avi,acoustic32_oneeighty_4Hz.wav,acoustic,1,0,0.782718400005251,8,1.585054605,4.39485775833333,AsyncTheta
8,11,NaN,NaN,6,1226_4Hz.avi,choir4_oneeighty_4Hz.wav,choir,1,0,1.41906000000017,8,1.585054605,4.39485775833333,AsyncTheta
8,12,NaN,NaN,33,1219_4Hz.avi,acoustic25_oneeighty_4Hz.wav,acoustic,1,0,0.566955300004338,8,1.585054605,4.39485775833333,AsyncTheta
8,13,NaN,NaN,25,1402_4Hz.avi,choir38_oneeighty_4Hz.wav,choir,2,1,0.660102399997413,8,1.585054605,4.39485775833333,AsyncTheta
8,14,NaN,NaN,8,1376_4Hz.avi,willow15_zero_4Hz.wav,willow,2,0,0.559271699996316,8,1.585054605,4.39485775833333,SyncTheta
8,15,NaN,NaN,9,1424_4Hz.avi,orch1_zero_4Hz.wav,orch,1,1,0.811604400005308,8,1.585054605,4.39485775833333,SyncTheta
8,16,NaN,NaN,48,1028_4Hz.avi,acoustic28_oneeighty_4Hz.wav,acoustic,1,0,0.583175399995525,8,1.585054605,4.39485775833333,AsyncTheta
8,1,NaN,NaN,37,1235_4Hz.avi,dar23_oneeighty_4Hz.wav,dar,2,1,0.462611300012213,8,1.338407645,4.39485775833333,AsyncTheta
8,2,NaN,NaN,4,1010_4Hz.avi,ep15_oneeighty_4Hz.wav,ep,1,0,0.236980799993034,8,1.338407645,4.39485775833333,AsyncTheta
8,3,NaN,NaN,5,1332_4Hz.avi,acoustic44_zero_4Hz.wav,acoustic,2,0,0.346827400004258,8,1.338407645,4.39485775833333,SyncTheta
8,4,NaN,NaN,35,1211_4Hz.avi,choir33_oneeighty_4Hz.wav,choir,2,1,0.209463600011077,8,1.338407645,4.39485775833333,AsyncTheta
8,5,NaN,NaN,30,1282_4Hz.avi,dar1_zero_4Hz.wav,dar,1,1,0.27885870001046,8,1.338407645,4.39485775833333,SyncTheta
8,6,NaN,NaN,39,1088_4Hz.avi,acoustic47_oneeighty_4Hz.wav,acoustic,1,0,0.23865709999518,8,1.338407645,4.39485775833333,AsyncTheta
8,7,NaN,NaN,21,1291_4Hz.avi,acoustic11_zero_4Hz.wav,acoustic,2,0,0.586246699996991,8,1.338407645,4.39485775833333,SyncTheta
8,8,NaN,NaN,19,1188_4Hz.avi,choir7_zero_4Hz.wav,choir,2,0,0.254082699990249,8,1.338407645,4.39485775833333,SyncTheta
8,9,NaN,NaN,47,1261_4Hz.avi,willow10_zero_4Hz.wav,willow,2,0,0.269548700001906,8,1.338407645,4.39485775833333,SyncTheta
8,10,NaN,NaN,15,1302_4Hz.avi,synth25_zero_4Hz.wav,synth,1,1,0.247906800010242,8,1.338407645,4.39485775833333,SyncTheta
8,11,NaN,NaN,38,1068_4Hz.avi,orch29_oneeighty_4Hz.wav,orch,2,1,0.532193899998674,8,1.338407645,4.39485775833333,AsyncTheta
8,12,NaN,NaN,11,1001_4Hz.avi,dar22_oneeighty_4Hz.wav,dar,2,1,0.187907399988035,8,1.338407645,4.39485775833333,AsyncTheta
8,13,NaN,NaN,41,1092_4Hz.avi,guitar37_zero_4Hz.wav,guitar,1,1,0.668849399997271,8,1.338407645,4.39485775833333,SyncTheta
8,14,NaN,NaN,10,1100_4Hz.avi,ep10_oneeighty_4Hz.wav,ep,1,0,0.246900700003607,8,1.338407645,4.39485775833333,AsyncTheta
8,15,NaN,NaN,22,1351_4Hz.avi,acoustic1_oneeighty_4Hz.wav,acoustic,1,0,0.281126499990933,8,1.338407645,4.39485775833333,AsyncTheta
8,16,NaN,NaN,16,1285_4Hz.avi,acoustic37_zero_4Hz.wav,acoustic,2,0,0.741917799998191,8,1.338407645,4.39485775833333,SyncTheta
8,1,NaN,NaN,18,1446_4Hz.avi,synth5_oneeighty_4Hz.wav,synth,2,1,0.401545999993687,8,1.31769776166667,4.39485775833333,AsyncTheta
8,2,NaN,NaN,29,1281_4Hz.avi,ep34_zero_4Hz.wav,ep,2,0,0.238905400008662,8,1.31769776166667,4.39485775833333,SyncTheta
8,3,NaN,NaN,24,1251_4Hz.avi,willow16_oneeighty_4Hz.wav,willow,2,1,0.244561200001044,8,1.31769776166667,4.39485775833333,AsyncTheta
8,4,NaN,NaN,36,1307_4Hz.avi,dar13_zero_4Hz.wav,dar,1,1,0.84161169998697,8,1.31769776166667,4.39485775833333,SyncTheta
8,5,NaN,NaN,12,1102_4Hz.avi,dar2_zero_4Hz.wav,dar,2,0,0.250129199994262,8,1.31769776166667,4.39485775833333,SyncTheta
8,6,NaN,NaN,17,1043_4Hz.avi,ep8_zero_4Hz.wav,ep,1,1,0.636374299996532,8,1.31769776166667,4.39485775833333,SyncTheta
8,7,NaN,NaN,34,1409_4Hz.avi,willow12_zero_4Hz.wav,willow,2,0,0.217909799990593,8,1.31769776166667,4.39485775833333,SyncTheta
8,8,NaN,NaN,13,1075_4Hz.avi,orch19_oneeighty_4Hz.wav,orch,1,0,0.289948099991307,8,1.31769776166667,4.39485775833333,AsyncTheta
8,9,NaN,NaN,20,1245_4Hz.avi,guitar48_zero_4Hz.wav,guitar,1,1,0.378372099992703,8,1.31769776166667,4.39485775833333,SyncTheta
8,10,NaN,NaN,43,1438_4Hz.avi,choir18_zero_4Hz.wav,choir,2,0,0.232763200008776,8,1.31769776166667,4.39485775833333,SyncTheta
8,11,NaN,NaN,31,1246_4Hz.avi,guitar47_oneeighty_4Hz.wav,guitar,2,1,0.273939800012158,8,1.31769776166667,4.39485775833333,AsyncTheta
8,12,NaN,NaN,1,1267_4Hz.avi,dar6_oneeighty_4Hz.wav,dar,1,0,0.353190599998925,8,1.31769776166667,4.39485775833333,AsyncTheta
8,13,NaN,NaN,27,1120_4Hz.avi,choir36_oneeighty_4Hz.wav,choir,1,0,0.244560000006459,8,1.31769776166667,4.39485775833333,AsyncTheta
8,14,NaN,NaN,46,1400_4Hz.avi,ep44_oneeighty_4Hz.wav,ep,2,1,1.03046740000718,8,1.31769776166667,4.39485775833333,AsyncTheta
8,15,NaN,NaN,42,1056_4Hz.avi,acoustic12_oneeighty_4Hz.wav,acoustic,1,0,0.245397100006812,8,1.31769776166667,4.39485775833333,AsyncTheta
8,16,NaN,NaN,3,1194_4Hz.avi,willow13_zero_4Hz.wav,willow,2,0,0.248402099998202,8,1.31769776166667,4.39485775833333,SyncTheta
9,1,1,NaN,40,1418_4Hz.avi,willow20_zero_4Hz.wav,willow,1,1,1.95203919999767,9,1.62293098833333,4.42208203666667,SyncTheta
9,2,2,NaN,2,1371_4Hz.avi,ep7_oneeighty_4Hz.wav,ep,1,0,0.942766799998935,9,1.62293098833333,4.42208203666667,AsyncTheta
9,3,3,NaN,23,1011_4Hz.avi,orch38_zero_4Hz.wav,orch,1,1,2.22431080001115,9,1.62293098833333,4.42208203666667,SyncTheta
9,4,NaN,NaN,7,1124_4Hz.avi,dar24_zero_4Hz.wav,dar,1,1,0.6770295999886,9,1.62293098833333,4.42208203666667,SyncTheta
9,5,NaN,NaN,28,1436_4Hz.avi,guitar31_zero_4Hz.wav,guitar,1,1,0.804698499996448,9,1.62293098833333,4.42208203666667,SyncTheta
9,6,NaN,NaN,26,1377_4Hz.avi,acoustic48_zero_4Hz.wav,acoustic,1,1,0.93016269999498,9,1.62293098833333,4.42208203666667,SyncTheta
9,7,NaN,NaN,44,1257_4Hz.avi,orch14_oneeighty_4Hz.wav,orch,2,1,1.90105709999625,9,1.62293098833333,4.42208203666667,AsyncTheta
9,8,NaN,NaN,45,1228_4Hz.avi,orch31_oneeighty_4Hz.wav,orch,1,0,1.05189840000821,9,1.62293098833333,4.42208203666667,AsyncTheta
9,9,NaN,NaN,14,1151_4Hz.avi,dar8_oneeighty_4Hz.wav,dar,2,1,0.323814500006847,9,1.62293098833333,4.42208203666667,AsyncTheta
9,10,NaN,NaN,32,1326_4Hz.avi,acoustic32_zero_4Hz.wav,acoustic,2,0,0.610753200002364,9,1.62293098833333,4.42208203666667,SyncTheta
9,11,NaN,NaN,6,1226_4Hz.avi,choir4_zero_4Hz.wav,choir,1,1,0.39499529999739,9,1.62293098833333,4.42208203666667,SyncTheta
9,12,NaN,NaN,33,1219_4Hz.avi,acoustic25_zero_4Hz.wav,acoustic,2,0,1.66487419999612,9,1.62293098833333,4.42208203666667,SyncTheta
9,13,NaN,NaN,25,1402_4Hz.avi,choir38_oneeighty_4Hz.wav,choir,1,0,0.756875600010972,9,1.62293098833333,4.42208203666667,AsyncTheta
9,14,NaN,NaN,8,1376_4Hz.avi,willow15_oneeighty_4Hz.wav,willow,1,0,0.312571600006777,9,1.62293098833333,4.42208203666667,AsyncTheta
9,15,NaN,NaN,9,1424_4Hz.avi,orch1_oneeighty_4Hz.wav,orch,2,1,0.943049699999392,9,1.62293098833333,4.42208203666667,AsyncTheta
9,16,NaN,NaN,48,1028_4Hz.avi,acoustic28_oneeighty_4Hz.wav,acoustic,2,1,1.87306779999926,9,1.62293098833333,4.42208203666667,AsyncTheta
9,1,NaN,NaN,37,1235_4Hz.avi,dar23_oneeighty_4Hz.wav,dar,2,1,0.369571500006714,9,1.31829315,4.42208203666667,AsyncTheta
9,2,NaN,NaN,4,1010_4Hz.avi,ep15_oneeighty_4Hz.wav,ep,1,0,0.292267099997844,9,1.31829315,4.42208203666667,AsyncTheta
9,3,NaN,NaN,5,1332_4Hz.avi,acoustic44_zero_4Hz.wav,acoustic,1,1,0.30715649999911,9,1.31829315,4.42208203666667,SyncTheta
9,4,NaN,NaN,35,1211_4Hz.avi,choir33_zero_4Hz.wav,choir,1,1,0.494797000006656,9,1.31829315,4.42208203666667,SyncTheta
9,5,NaN,NaN,30,1282_4Hz.avi,dar1_oneeighty_4Hz.wav,dar,1,0,0.450368399993749,9,1.31829315,4.42208203666667,AsyncTheta
9,6,NaN,NaN,39,1088_4Hz.avi,acoustic47_zero_4Hz.wav,acoustic,1,1,0.340611000006902,9,1.31829315,4.42208203666667,SyncTheta
9,7,NaN,NaN,21,1291_4Hz.avi,acoustic11_zero_4Hz.wav,acoustic,1,1,0.275767200000701,9,1.31829315,4.42208203666667,SyncTheta
9,8,NaN,NaN,19,1188_4Hz.avi,choir7_zero_4Hz.wav,choir,2,0,0.306268199987244,9,1.31829315,4.42208203666667,SyncTheta
9,9,NaN,NaN,47,1261_4Hz.avi,willow10_oneeighty_4Hz.wav,willow,1,0,0.441033299997798,9,1.31829315,4.42208203666667,AsyncTheta
9,10,NaN,NaN,15,1302_4Hz.avi,synth25_zero_4Hz.wav,synth,1,1,0.44181689999823,9,1.31829315,4.42208203666667,SyncTheta
9,11,NaN,NaN,38,1068_4Hz.avi,orch29_oneeighty_4Hz.wav,orch,2,1,0.216004799993243,9,1.31829315,4.42208203666667,AsyncTheta
9,12,NaN,NaN,11,1001_4Hz.avi,dar22_oneeighty_4Hz.wav,dar,1,0,0.407570099996519,9,1.31829315,4.42208203666667,AsyncTheta
9,13,NaN,NaN,41,1092_4Hz.avi,guitar37_oneeighty_4Hz.wav,guitar,2,1,0.325470299998415,9,1.31829315,4.42208203666667,AsyncTheta
9,14,NaN,NaN,10,1100_4Hz.avi,ep10_oneeighty_4Hz.wav,ep,1,0,0.357874599998468,9,1.31829315,4.42208203666667,AsyncTheta
9,15,NaN,NaN,22,1351_4Hz.avi,acoustic1_zero_4Hz.wav,acoustic,1,1,0.116908299998613,9,1.31829315,4.42208203666667,SyncTheta
9,16,NaN,NaN,16,1285_4Hz.avi,acoustic37_zero_4Hz.wav,acoustic,1,1,0.34572019999905,9,1.31829315,4.42208203666667,SyncTheta
9,1,NaN,NaN,18,1446_4Hz.avi,synth5_zero_4Hz.wav,synth,2,0,0.246313299998292,9,1.35223989,4.42208203666667,SyncTheta
9,2,NaN,NaN,29,1281_4Hz.avi,ep34_oneeighty_4Hz.wav,ep,1,0,0.396779799993965,9,1.35223989,4.42208203666667,AsyncTheta
9,3,NaN,NaN,24,1251_4Hz.avi,willow16_oneeighty_4Hz.wav,willow,1,0,0.378806500011706,9,1.35223989,4.42208203666667,AsyncTheta
9,4,NaN,NaN,36,1307_4Hz.avi,dar13_oneeighty_4Hz.wav,dar,2,1,0.182673200004501,9,1.35223989,4.42208203666667,AsyncTheta
9,5,NaN,NaN,12,1102_4Hz.avi,dar2_zero_4Hz.wav,dar,1,1,0.383951299998444,9,1.35223989,4.42208203666667,SyncTheta
9,6,NaN,NaN,17,1043_4Hz.avi,ep8_zero_4Hz.wav,ep,1,1,0.396196500005317,9,1.35223989,4.42208203666667,SyncTheta
9,7,NaN,NaN,34,1409_4Hz.avi,willow12_zero_4Hz.wav,willow,1,1,1.04320949999965,9,1.35223989,4.42208203666667,SyncTheta
9,8,NaN,NaN,13,1075_4Hz.avi,orch19_oneeighty_4Hz.wav,orch,1,0,1.02176449999388,9,1.35223989,4.42208203666667,AsyncTheta
9,9,NaN,NaN,20,1245_4Hz.avi,guitar48_oneeighty_4Hz.wav,guitar,1,0,0.643238899996504,9,1.35223989,4.42208203666667,AsyncTheta
9,10,NaN,NaN,43,1438_4Hz.avi,choir18_oneeighty_4Hz.wav,choir,2,1,0.269550099998014,9,1.35223989,4.42208203666667,AsyncTheta
9,11,NaN,NaN,31,1246_4Hz.avi,guitar47_oneeighty_4Hz.wav,guitar,1,0,0.180534099999932,9,1.35223989,4.42208203666667,AsyncTheta
9,12,NaN,NaN,1,1267_4Hz.avi,dar6_zero_4Hz.wav,dar,1,1,1.47661719999451,9,1.35223989,4.42208203666667,SyncTheta
9,13,NaN,NaN,27,1120_4Hz.avi,choir36_zero_4Hz.wav,choir,1,1,0.842934799991781,9,1.35223989,4.42208203666667,SyncTheta
9,14,NaN,NaN,46,1400_4Hz.avi,ep44_oneeighty_4Hz.wav,ep,2,1,0.243113400007132,9,1.35223989,4.42208203666667,AsyncTheta
9,15,NaN,NaN,42,1056_4Hz.avi,acoustic12_zero_4Hz.wav,acoustic,1,1,0.450573400012217,9,1.35223989,4.42208203666667,SyncTheta
9,16,NaN,NaN,3,1194_4Hz.avi,willow13_zero_4Hz.wav,willow,1,1,0.364732499991078,9,1.35223989,4.42208203666667,SyncTheta
10,1,1,NaN,40,1418_4Hz.avi,willow20_oneeighty_4Hz.wav,willow,1,0,5.41799289999972,10,3.74563778833333,7.280509535,AsyncTheta
10,2,2,NaN,2,1371_4Hz.avi,ep7_zero_4Hz.wav,ep,2,0,6.25740169999972,10,3.74563778833333,7.280509535,SyncTheta
10,3,3,NaN,23,1011_4Hz.avi,orch38_oneeighty_4Hz.wav,orch,2,1,4.7668450000001,10,3.74563778833333,7.280509535,AsyncTheta
10,4,NaN,NaN,7,1124_4Hz.avi,dar24_oneeighty_4Hz.wav,dar,2,1,0.825102199999947,10,3.74563778833333,7.280509535,AsyncTheta
10,5,NaN,NaN,28,1436_4Hz.avi,guitar31_zero_4Hz.wav,guitar,2,0,0.826516699999956,10,3.74563778833333,7.280509535,SyncTheta
10,6,NaN,NaN,26,1377_4Hz.avi,acoustic48_zero_4Hz.wav,acoustic,2,0,0.928377100000034,10,3.74563778833333,7.280509535,SyncTheta
10,7,NaN,NaN,44,1257_4Hz.avi,orch14_oneeighty_4Hz.wav,orch,1,0,0.878050599999824,10,3.74563778833333,7.280509535,AsyncTheta
10,8,NaN,NaN,45,1228_4Hz.avi,orch31_oneeighty_4Hz.wav,orch,1,0,4.17334220000021,10,3.74563778833333,7.280509535,AsyncTheta
10,9,NaN,NaN,14,1151_4Hz.avi,dar8_zero_4Hz.wav,dar,2,0,0.971991100000196,10,3.74563778833333,7.280509535,SyncTheta
10,10,NaN,NaN,32,1326_4Hz.avi,acoustic32_oneeighty_4Hz.wav,acoustic,2,1,1.13025070000003,10,3.74563778833333,7.280509535,AsyncTheta
10,11,NaN,NaN,6,1226_4Hz.avi,choir4_zero_4Hz.wav,choir,1,1,0.526624600000105,10,3.74563778833333,7.280509535,SyncTheta
10,12,NaN,NaN,33,1219_4Hz.avi,acoustic25_oneeighty_4Hz.wav,acoustic,1,0,1.99855829999979,10,3.74563778833333,7.280509535,AsyncTheta
10,13,NaN,NaN,25,1402_4Hz.avi,choir38_zero_4Hz.wav,choir,1,1,2.11953380000023,10,3.74563778833333,7.280509535,SyncTheta
10,14,NaN,NaN,8,1376_4Hz.avi,willow15_oneeighty_4Hz.wav,willow,2,1,1.4244819999999,10,3.74563778833333,7.280509535,AsyncTheta
10,15,NaN,NaN,9,1424_4Hz.avi,orch1_zero_4Hz.wav,orch,1,1,0.631833200000074,10,3.74563778833333,7.280509535,SyncTheta
10,16,NaN,NaN,48,1028_4Hz.avi,acoustic28_zero_4Hz.wav,acoustic,1,1,2.33778380000012,10,3.74563778833333,7.280509535,SyncTheta
10,1,NaN,NaN,37,1235_4Hz.avi,dar23_oneeighty_4Hz.wav,dar,1,0,1.29914439999993,10,1.57050775833333,7.280509535,AsyncTheta
10,2,NaN,NaN,4,1010_4Hz.avi,ep15_oneeighty_4Hz.wav,ep,1,0,1.28363630000013,10,1.57050775833333,7.280509535,AsyncTheta
10,3,NaN,NaN,5,1332_4Hz.avi,acoustic44_zero_4Hz.wav,acoustic,1,1,0.651784499999849,10,1.57050775833333,7.280509535,SyncTheta
10,4,NaN,NaN,35,1211_4Hz.avi,choir33_oneeighty_4Hz.wav,choir,2,1,0.556104300000243,10,1.57050775833333,7.280509535,AsyncTheta
10,5,NaN,NaN,30,1282_4Hz.avi,dar1_zero_4Hz.wav,dar,1,1,1.80959910000001,10,1.57050775833333,7.280509535,SyncTheta
10,6,NaN,NaN,39,1088_4Hz.avi,acoustic47_oneeighty_4Hz.wav,acoustic,2,1,0.876986600000237,10,1.57050775833333,7.280509535,AsyncTheta
10,7,NaN,NaN,21,1291_4Hz.avi,acoustic11_oneeighty_4Hz.wav,acoustic,2,1,2.28378199999997,10,1.57050775833333,7.280509535,AsyncTheta
10,8,NaN,NaN,19,1188_4Hz.avi,choir7_zero_4Hz.wav,choir,1,1,1.62099659999967,10,1.57050775833333,7.280509535,SyncTheta
10,9,NaN,NaN,47,1261_4Hz.avi,willow10_oneeighty_4Hz.wav,willow,2,1,2.25095789999978,10,1.57050775833333,7.280509535,AsyncTheta
10,10,NaN,NaN,15,1302_4Hz.avi,synth25_zero_4Hz.wav,synth,1,1,1.0418394999997,10,1.57050775833333,7.280509535,SyncTheta
10,11,NaN,NaN,38,1068_4Hz.avi,orch29_zero_4Hz.wav,orch,2,0,0.939628799999809,10,1.57050775833333,7.280509535,SyncTheta
10,12,NaN,NaN,11,1001_4Hz.avi,dar22_oneeighty_4Hz.wav,dar,1,0,0.996064099999785,10,1.57050775833333,7.280509535,AsyncTheta
10,13,NaN,NaN,41,1092_4Hz.avi,guitar37_zero_4Hz.wav,guitar,2,0,0.521093199999996,10,1.57050775833333,7.280509535,SyncTheta
10,14,NaN,NaN,10,1100_4Hz.avi,ep10_oneeighty_4Hz.wav,ep,2,1,1.29247469999973,10,1.57050775833333,7.280509535,AsyncTheta
10,15,NaN,NaN,22,1351_4Hz.avi,acoustic1_zero_4Hz.wav,acoustic,1,1,0.740769900000487,10,1.57050775833333,7.280509535,SyncTheta
10,16,NaN,NaN,16,1285_4Hz.avi,acoustic37_zero_4Hz.wav,acoustic,1,1,0.684950700000627,10,1.57050775833333,7.280509535,SyncTheta
10,1,NaN,NaN,18,1446_4Hz.avi,synth5_zero_4Hz.wav,synth,2,0,0.369741299999987,10,1.36490301,7.280509535,SyncTheta
10,2,NaN,NaN,29,1281_4Hz.avi,ep34_oneeighty_4Hz.wav,ep,1,0,0.45406230000026,10,1.36490301,7.280509535,AsyncTheta
10,3,NaN,NaN,24,1251_4Hz.avi,willow16_zero_4Hz.wav,willow,1,1,0.50792519999959,10,1.36490301,7.280509535,SyncTheta
10,4,NaN,NaN,36,1307_4Hz.avi,dar13_zero_4Hz.wav,dar,1,1,0.736343399999896,10,1.36490301,7.280509535,SyncTheta
10,5,NaN,NaN,12,1102_4Hz.avi,dar2_oneeighty_4Hz.wav,dar,1,0,0.523792200000571,10,1.36490301,7.280509535,AsyncTheta
10,6,NaN,NaN,17,1043_4Hz.avi,ep8_oneeighty_4Hz.wav,ep,2,1,0.360709300000053,10,1.36490301,7.280509535,AsyncTheta
10,7,NaN,NaN,34,1409_4Hz.avi,willow12_oneeighty_4Hz.wav,willow,2,1,0.267003400000249,10,1.36490301,7.280509535,AsyncTheta
10,8,NaN,NaN,13,1075_4Hz.avi,orch19_zero_4Hz.wav,orch,2,0,0.42444069999965,10,1.36490301,7.280509535,SyncTheta
10,9,NaN,NaN,20,1245_4Hz.avi,guitar48_oneeighty_4Hz.wav,guitar,1,0,0.654673199999706,10,1.36490301,7.280509535,AsyncTheta
10,10,NaN,NaN,43,1438_4Hz.avi,choir18_oneeighty_4Hz.wav,choir,2,1,0.316012000000228,10,1.36490301,7.280509535,AsyncTheta
10,11,NaN,NaN,31,1246_4Hz.avi,guitar47_oneeighty_4Hz.wav,guitar,2,1,0.689406800000143,10,1.36490301,7.280509535,AsyncTheta
10,12,NaN,NaN,1,1267_4Hz.avi,dar6_zero_4Hz.wav,dar,1,1,0.290177199999562,10,1.36490301,7.280509535,SyncTheta
10,13,NaN,NaN,27,1120_4Hz.avi,choir36_zero_4Hz.wav,choir,1,1,0.486674499999936,10,1.36490301,7.280509535,SyncTheta
10,14,NaN,NaN,46,1400_4Hz.avi,ep44_zero_4Hz.wav,ep,1,1,0.414353699999992,10,1.36490301,7.280509535,SyncTheta
10,15,NaN,NaN,42,1056_4Hz.avi,acoustic12_oneeighty_4Hz.wav,acoustic,2,1,0.345230599999923,10,1.36490301,7.280509535,AsyncTheta
10,16,NaN,NaN,3,1194_4Hz.avi,willow13_zero_4Hz.wav,willow,1,1,0.781548599999951,10,1.36490301,7.280509535,SyncTheta
11,1,1,NaN,40,1418_4Hz.avi,willow20_zero_4Hz.wav,willow,2,0,1.89419610000004,11,2.46777133,5.45098881833333,SyncTheta
11,2,2,NaN,2,1371_4Hz.avi,ep7_zero_4Hz.wav,ep,1,1,2.74480650000078,11,2.46777133,5.45098881833333,SyncTheta
11,3,3,NaN,23,1011_4Hz.avi,orch38_oneeighty_4Hz.wav,orch,2,1,2.27794139999969,11,2.46777133,5.45098881833333,AsyncTheta
11,4,NaN,NaN,7,1124_4Hz.avi,dar24_zero_4Hz.wav,dar,2,0,0.608923499999946,11,2.46777133,5.45098881833333,SyncTheta
11,5,NaN,NaN,28,1436_4Hz.avi,guitar31_oneeighty_4Hz.wav,guitar,2,1,4.07038000000102,11,2.46777133,5.45098881833333,AsyncTheta
11,6,NaN,NaN,26,1377_4Hz.avi,acoustic48_oneeighty_4Hz.wav,acoustic,1,0,1.06340459999956,11,2.46777133,5.45098881833333,AsyncTheta
11,7,NaN,NaN,44,1257_4Hz.avi,orch14_zero_4Hz.wav,orch,1,1,4.40695649999907,11,2.46777133,5.45098881833333,SyncTheta
11,8,NaN,NaN,45,1228_4Hz.avi,orch31_oneeighty_4Hz.wav,orch,2,1,1.0623357000004,11,2.46777133,5.45098881833333,AsyncTheta
11,9,NaN,NaN,14,1151_4Hz.avi,dar8_oneeighty_4Hz.wav,dar,2,1,0.486769499999355,11,2.46777133,5.45098881833333,AsyncTheta
11,10,NaN,NaN,32,1326_4Hz.avi,acoustic32_oneeighty_4Hz.wav,acoustic,1,0,3.70892439999989,11,2.46777133,5.45098881833333,AsyncTheta
11,11,NaN,NaN,6,1226_4Hz.avi,choir4_oneeighty_4Hz.wav,choir,2,1,0.875666699999783,11,2.46777133,5.45098881833333,AsyncTheta
11,12,NaN,NaN,33,1219_4Hz.avi,acoustic25_zero_4Hz.wav,acoustic,2,0,1.6977738000005,11,2.46777133,5.45098881833333,SyncTheta
11,13,NaN,NaN,25,1402_4Hz.avi,choir38_zero_4Hz.wav,choir,1,1,0.606729000000996,11,2.46777133,5.45098881833333,SyncTheta
11,14,NaN,NaN,8,1376_4Hz.avi,willow15_zero_4Hz.wav,willow,1,1,0.542471299999306,11,2.46777133,5.45098881833333,SyncTheta
11,15,NaN,NaN,9,1424_4Hz.avi,orch1_oneeighty_4Hz.wav,orch,1,0,0.521734199999628,11,2.46777133,5.45098881833333,AsyncTheta
11,16,NaN,NaN,48,1028_4Hz.avi,acoustic28_zero_4Hz.wav,acoustic,2,0,1.29100370000015,11,2.46777133,5.45098881833333,SyncTheta
11,1,NaN,NaN,37,1235_4Hz.avi,dar23_zero_4Hz.wav,dar,1,1,0.582559300000867,11,1.41924194,5.45098881833333,SyncTheta
11,2,NaN,NaN,4,1010_4Hz.avi,ep15_oneeighty_4Hz.wav,ep,1,0,0.55146749999949,11,1.41924194,5.45098881833333,AsyncTheta
11,3,NaN,NaN,5,1332_4Hz.avi,acoustic44_zero_4Hz.wav,acoustic,2,0,1.37255229999937,11,1.41924194,5.45098881833333,SyncTheta
11,4,NaN,NaN,35,1211_4Hz.avi,choir33_zero_4Hz.wav,choir,2,0,0.566954699999769,11,1.41924194,5.45098881833333,SyncTheta
11,5,NaN,NaN,30,1282_4Hz.avi,dar1_oneeighty_4Hz.wav,dar,1,0,0.509806299998672,11,1.41924194,5.45098881833333,AsyncTheta
11,6,NaN,NaN,39,1088_4Hz.avi,acoustic47_zero_4Hz.wav,acoustic,1,1,0.468754300000001,11,1.41924194,5.45098881833333,SyncTheta
11,7,NaN,NaN,21,1291_4Hz.avi,acoustic11_oneeighty_4Hz.wav,acoustic,1,0,0.591908300000796,11,1.41924194,5.45098881833333,AsyncTheta
11,8,NaN,NaN,19,1188_4Hz.avi,choir7_oneeighty_4Hz.wav,choir,2,1,0.359089199999289,11,1.41924194,5.45098881833333,AsyncTheta
11,9,NaN,NaN,47,1261_4Hz.avi,willow10_zero_4Hz.wav,willow,1,1,0.455292599999666,11,1.41924194,5.45098881833333,SyncTheta
11,10,NaN,NaN,15,1302_4Hz.avi,synth25_oneeighty_4Hz.wav,synth,1,0,0.362535899999784,11,1.41924194,5.45098881833333,AsyncTheta
11,11,NaN,NaN,38,1068_4Hz.avi,orch29_oneeighty_4Hz.wav,orch,1,0,0.410746600000493,11,1.41924194,5.45098881833333,AsyncTheta
11,12,NaN,NaN,11,1001_4Hz.avi,dar22_zero_4Hz.wav,dar,1,1,1.0261475999996,11,1.41924194,5.45098881833333,SyncTheta
11,13,NaN,NaN,41,1092_4Hz.avi,guitar37_oneeighty_4Hz.wav,guitar,1,0,0.377352299999984,11,1.41924194,5.45098881833333,AsyncTheta
11,14,NaN,NaN,10,1100_4Hz.avi,ep10_zero_4Hz.wav,ep,2,0,0.89142879999963,11,1.41924194,5.45098881833333,SyncTheta
11,15,NaN,NaN,22,1351_4Hz.avi,acoustic1_zero_4Hz.wav,acoustic,1,1,2.34543619999931,11,1.41924194,5.45098881833333,SyncTheta
11,16,NaN,NaN,16,1285_4Hz.avi,acoustic37_oneeighty_4Hz.wav,acoustic,2,1,0.690875399999641,11,1.41924194,5.45098881833333,AsyncTheta
11,1,NaN,NaN,18,1446_4Hz.avi,synth5_zero_4Hz.wav,synth,1,1,0.301669000000402,11,1.42446818166667,5.45098881833333,SyncTheta
11,2,NaN,NaN,29,1281_4Hz.avi,ep34_zero_4Hz.wav,ep,1,1,0.463008200000331,11,1.42446818166667,5.45098881833333,SyncTheta
11,3,NaN,NaN,24,1251_4Hz.avi,willow16_oneeighty_4Hz.wav,willow,2,1,0.625522099999216,11,1.42446818166667,5.45098881833333,AsyncTheta
11,4,NaN,NaN,36,1307_4Hz.avi,dar13_zero_4Hz.wav,dar,1,1,0.284826999999495,11,1.42446818166667,5.45098881833333,SyncTheta
11,5,NaN,NaN,12,1102_4Hz.avi,dar2_oneeighty_4Hz.wav,dar,2,1,2.37142990000029,11,1.42446818166667,5.45098881833333,AsyncTheta
11,6,NaN,NaN,17,1043_4Hz.avi,ep8_zero_4Hz.wav,ep,1,1,0.509249000000636,11,1.42446818166667,5.45098881833333,SyncTheta
11,7,NaN,NaN,34,1409_4Hz.avi,willow12_oneeighty_4Hz.wav,willow,1,0,1.77587719999974,11,1.42446818166667,5.45098881833333,AsyncTheta
11,8,NaN,NaN,13,1075_4Hz.avi,orch19_zero_4Hz.wav,orch,1,1,0.664241200000106,11,1.42446818166667,5.45098881833333,SyncTheta
11,9,NaN,NaN,20,1245_4Hz.avi,guitar48_oneeighty_4Hz.wav,guitar,2,1,1.40280490000077,11,1.42446818166667,5.45098881833333,AsyncTheta
11,10,NaN,NaN,43,1438_4Hz.avi,choir18_oneeighty_4Hz.wav,choir,2,1,0.396040199999334,11,1.42446818166667,5.45098881833333,AsyncTheta
11,11,NaN,NaN,31,1246_4Hz.avi,guitar47_zero_4Hz.wav,guitar,2,0,0.281823299999814,11,1.42446818166667,5.45098881833333,SyncTheta
11,12,NaN,NaN,1,1267_4Hz.avi,dar6_zero_4Hz.wav,dar,1,1,0.701644700000543,11,1.42446818166667,5.45098881833333,SyncTheta
11,13,NaN,NaN,27,1120_4Hz.avi,choir36_oneeighty_4Hz.wav,choir,1,0,0.34805039999992,11,1.42446818166667,5.45098881833333,AsyncTheta
11,14,NaN,NaN,46,1400_4Hz.avi,ep44_oneeighty_4Hz.wav,ep,1,0,1.47410300000047,11,1.42446818166667,5.45098881833333,AsyncTheta
11,15,NaN,NaN,42,1056_4Hz.avi,acoustic12_oneeighty_4Hz.wav,acoustic,2,1,0.280759700000999,11,1.42446818166667,5.45098881833333,AsyncTheta
11,16,NaN,NaN,3,1194_4Hz.avi,willow13_zero_4Hz.wav,willow,1,1,1.16123300000072,11,1.42446818166667,5.45098881833333,SyncTheta
12,1,1,NaN,40,1418_4Hz.avi,willow20_zero_4Hz.wav,willow,2,0,3.27743910000027,12,5.73955606,9.219293035,SyncTheta
12,2,2,NaN,2,1371_4Hz.avi,ep7_zero_4Hz.wav,ep,2,0,12.950692299999,12,5.73955606,9.219293035,SyncTheta
12,3,3,NaN,23,1011_4Hz.avi,orch38_oneeighty_4Hz.wav,orch,2,1,4.47854880000159,12,5.73955606,9.219293035,AsyncTheta
12,4,NaN,NaN,7,1124_4Hz.avi,dar24_oneeighty_4Hz.wav,dar,2,1,4.60267920000115,12,5.73955606,9.219293035,AsyncTheta
12,5,NaN,NaN,28,1436_4Hz.avi,guitar31_zero_4Hz.wav,guitar,1,1,1.98202580000179,12,5.73955606,9.219293035,SyncTheta
12,6,NaN,NaN,26,1377_4Hz.avi,acoustic48_oneeighty_4Hz.wav,acoustic,2,1,0.858992699999362,12,5.73955606,9.219293035,AsyncTheta
12,7,NaN,NaN,44,1257_4Hz.avi,orch14_oneeighty_4Hz.wav,orch,2,1,6.22938370000156,12,5.73955606,9.219293035,AsyncTheta
12,8,NaN,NaN,45,1228_4Hz.avi,orch31_oneeighty_4Hz.wav,orch,2,1,0.316293800000494,12,5.73955606,9.219293035,AsyncTheta
12,9,NaN,NaN,14,1151_4Hz.avi,dar8_zero_4Hz.wav,dar,2,0,0.3985016000006,12,5.73955606,9.219293035,SyncTheta
12,10,NaN,NaN,32,1326_4Hz.avi,acoustic32_zero_4Hz.wav,acoustic,2,0,0.898020999999062,12,5.73955606,9.219293035,SyncTheta
12,11,NaN,NaN,6,1226_4Hz.avi,choir4_oneeighty_4Hz.wav,choir,2,1,0.641904899999645,12,5.73955606,9.219293035,AsyncTheta
12,12,NaN,NaN,33,1219_4Hz.avi,acoustic25_oneeighty_4Hz.wav,acoustic,1,0,0.690031399999498,12,5.73955606,9.219293035,AsyncTheta
12,13,NaN,NaN,25,1402_4Hz.avi,choir38_oneeighty_4Hz.wav,choir,1,0,0.714079299999867,12,5.73955606,9.219293035,AsyncTheta
12,14,NaN,NaN,8,1376_4Hz.avi,willow15_zero_4Hz.wav,willow,1,1,0.846765199999936,12,5.73955606,9.219293035,SyncTheta
12,15,NaN,NaN,9,1424_4Hz.avi,orch1_zero_4Hz.wav,orch,1,1,2.1472548999991,12,5.73955606,9.219293035,SyncTheta
12,16,NaN,NaN,48,1028_4Hz.avi,acoustic28_zero_4Hz.wav,acoustic,2,0,0.336217099998976,12,5.73955606,9.219293035,SyncTheta
12,1,NaN,NaN,37,1235_4Hz.avi,dar23_zero_4Hz.wav,dar,2,0,1.97690030000012,12,1.63203794166667,9.219293035,SyncTheta
12,2,NaN,NaN,4,1010_4Hz.avi,ep15_zero_4Hz.wav,ep,1,1,1.82614759999888,12,1.63203794166667,9.219293035,SyncTheta
12,3,NaN,NaN,5,1332_4Hz.avi,acoustic44_oneeighty_4Hz.wav,acoustic,1,0,0.351219300000594,12,1.63203794166667,9.219293035,AsyncTheta
12,4,NaN,NaN,35,1211_4Hz.avi,choir33_oneeighty_4Hz.wav,choir,2,1,0.746385399999781,12,1.63203794166667,9.219293035,AsyncTheta
12,5,NaN,NaN,30,1282_4Hz.avi,dar1_oneeighty_4Hz.wav,dar,2,1,0.601438599998801,12,1.63203794166667,9.219293035,AsyncTheta
12,6,NaN,NaN,39,1088_4Hz.avi,acoustic47_zero_4Hz.wav,acoustic,1,1,1.30663890000142,12,1.63203794166667,9.219293035,SyncTheta
12,7,NaN,NaN,21,1291_4Hz.avi,acoustic11_oneeighty_4Hz.wav,acoustic,2,1,2.82544149999922,12,1.63203794166667,9.219293035,AsyncTheta
12,8,NaN,NaN,19,1188_4Hz.avi,choir7_oneeighty_4Hz.wav,choir,2,1,0.962414100000387,12,1.63203794166667,9.219293035,AsyncTheta
12,9,NaN,NaN,47,1261_4Hz.avi,willow10_zero_4Hz.wav,willow,2,0,2.05169430000024,12,1.63203794166667,9.219293035,SyncTheta
12,10,NaN,NaN,15,1302_4Hz.avi,synth25_oneeighty_4Hz.wav,synth,2,1,1.20601370000077,12,1.63203794166667,9.219293035,AsyncTheta
12,11,NaN,NaN,38,1068_4Hz.avi,orch29_zero_4Hz.wav,orch,2,0,1.44001319999916,12,1.63203794166667,9.219293035,SyncTheta
12,12,NaN,NaN,11,1001_4Hz.avi,dar22_zero_4Hz.wav,dar,1,1,0.827578399999766,12,1.63203794166667,9.219293035,SyncTheta
12,13,NaN,NaN,41,1092_4Hz.avi,guitar37_zero_4Hz.wav,guitar,2,0,0.606015800000023,12,1.63203794166667,9.219293035,SyncTheta
12,14,NaN,NaN,10,1100_4Hz.avi,ep10_oneeighty_4Hz.wav,ep,1,0,0.480975300000864,12,1.63203794166667,9.219293035,AsyncTheta
12,15,NaN,NaN,22,1351_4Hz.avi,acoustic1_zero_4Hz.wav,acoustic,1,1,4.69339909999871,12,1.63203794166667,9.219293035,SyncTheta
12,16,NaN,NaN,16,1285_4Hz.avi,acoustic37_oneeighty_4Hz.wav,acoustic,1,0,3.38396410000132,12,1.63203794166667,9.219293035,AsyncTheta
12,1,NaN,NaN,18,1446_4Hz.avi,synth5_zero_4Hz.wav,synth,2,0,0.530255199999374,12,1.67600654833333,9.219293035,SyncTheta
12,2,NaN,NaN,29,1281_4Hz.avi,ep34_oneeighty_4Hz.wav,ep,1,0,0.797664599998825,12,1.67600654833333,9.219293035,AsyncTheta
12,3,NaN,NaN,24,1251_4Hz.avi,willow16_oneeighty_4Hz.wav,willow,2,1,0.474399799999446,12,1.67600654833333,9.219293035,AsyncTheta
12,4,NaN,NaN,36,1307_4Hz.avi,dar13_oneeighty_4Hz.wav,dar,2,1,0.904274299999088,12,1.67600654833333,9.219293035,AsyncTheta
12,5,NaN,NaN,12,1102_4Hz.avi,dar2_oneeighty_4Hz.wav,dar,2,1,5.29410850000022,12,1.67600654833333,9.219293035,AsyncTheta
12,6,NaN,NaN,17,1043_4Hz.avi,ep8_zero_4Hz.wav,ep,2,0,3.40706040000077,12,1.67600654833333,9.219293035,SyncTheta
12,7,NaN,NaN,34,1409_4Hz.avi,willow12_zero_4Hz.wav,willow,1,1,0.647147000001496,12,1.67600654833333,9.219293035,SyncTheta
12,8,NaN,NaN,13,1075_4Hz.avi,orch19_zero_4Hz.wav,orch,1,1,1.44302529999914,12,1.67600654833333,9.219293035,SyncTheta
12,9,NaN,NaN,20,1245_4Hz.avi,guitar48_zero_4Hz.wav,guitar,2,0,0.265135100000407,12,1.67600654833333,9.219293035,SyncTheta
12,10,NaN,NaN,43,1438_4Hz.avi,choir18_zero_4Hz.wav,choir,1,1,2.29013130000021,12,1.67600654833333,9.219293035,SyncTheta
12,11,NaN,NaN,31,1246_4Hz.avi,guitar47_oneeighty_4Hz.wav,guitar,2,1,0.385486200000742,12,1.67600654833333,9.219293035,AsyncTheta
12,12,NaN,NaN,1,1267_4Hz.avi,dar6_oneeighty_4Hz.wav,dar,2,1,1.9472353000001,12,1.67600654833333,9.219293035,AsyncTheta
12,13,NaN,NaN,27,1120_4Hz.avi,choir36_oneeighty_4Hz.wav,choir,1,0,2.22587609999937,12,1.67600654833333,9.219293035,AsyncTheta
12,14,NaN,NaN,46,1400_4Hz.avi,ep44_zero_4Hz.wav,ep,1,1,1.04155010000068,12,1.67600654833333,9.219293035,SyncTheta
12,15,NaN,NaN,42,1056_4Hz.avi,acoustic12_zero_4Hz.wav,acoustic,2,0,0.666303100000732,12,1.67600654833333,9.219293035,SyncTheta
12,16,NaN,NaN,3,1194_4Hz.avi,willow13_oneeighty_4Hz.wav,willow,2,1,4.53117519999978,12,1.67600654833333,9.219293035,AsyncTheta
13,1,1,NaN,40,1418_4Hz.avi,willow20_oneeighty_4Hz.wav,willow,1,0,5.75618849999955,13,1.928876495,4.86592576666667,AsyncTheta
13,2,2,NaN,2,1371_4Hz.avi,ep7_oneeighty_4Hz.wav,ep,2,1,0.665976200001751,13,1.928876495,4.86592576666667,AsyncTheta
13,3,3,NaN,23,1011_4Hz.avi,orch38_zero_4Hz.wav,orch,1,1,1.72217280000041,13,1.928876495,4.86592576666667,SyncTheta
13,4,NaN,NaN,7,1124_4Hz.avi,dar24_zero_4Hz.wav,dar,2,0,0.981717700000445,13,1.928876495,4.86592576666667,SyncTheta
13,5,NaN,NaN,28,1436_4Hz.avi,guitar31_oneeighty_4Hz.wav,guitar,2,1,0.873209400000633,13,1.928876495,4.86592576666667,AsyncTheta
13,6,NaN,NaN,26,1377_4Hz.avi,acoustic48_zero_4Hz.wav,acoustic,1,1,0.651725899999292,13,1.928876495,4.86592576666667,SyncTheta
13,7,NaN,NaN,44,1257_4Hz.avi,orch14_zero_4Hz.wav,orch,1,1,0.464257200001157,13,1.928876495,4.86592576666667,SyncTheta
13,8,NaN,NaN,45,1228_4Hz.avi,orch31_oneeighty_4Hz.wav,orch,2,1,0.635913099999016,13,1.928876495,4.86592576666667,AsyncTheta
13,9,NaN,NaN,14,1151_4Hz.avi,dar8_zero_4Hz.wav,dar,2,0,2.34895699999834,13,1.928876495,4.86592576666667,SyncTheta
13,10,NaN,NaN,32,1326_4Hz.avi,acoustic32_oneeighty_4Hz.wav,acoustic,1,0,0.668337099999917,13,1.928876495,4.86592576666667,AsyncTheta
13,11,NaN,NaN,6,1226_4Hz.avi,choir4_zero_4Hz.wav,choir,1,1,0.49716350000017,13,1.928876495,4.86592576666667,SyncTheta
13,12,NaN,NaN,33,1219_4Hz.avi,acoustic25_oneeighty_4Hz.wav,acoustic,1,0,2.43026359999931,13,1.928876495,4.86592576666667,AsyncTheta
13,13,NaN,NaN,25,1402_4Hz.avi,choir38_oneeighty_4Hz.wav,choir,1,0,0.578086900000926,13,1.928876495,4.86592576666667,AsyncTheta
13,14,NaN,NaN,8,1376_4Hz.avi,willow15_zero_4Hz.wav,willow,1,1,0.538620800001809,13,1.928876495,4.86592576666667,SyncTheta
13,15,NaN,NaN,9,1424_4Hz.avi,orch1_zero_4Hz.wav,orch,1,1,0.384972299998481,13,1.928876495,4.86592576666667,SyncTheta
13,16,NaN,NaN,48,1028_4Hz.avi,acoustic28_oneeighty_4Hz.wav,acoustic,2,1,0.565043499998865,13,1.928876495,4.86592576666667,AsyncTheta
13,1,NaN,NaN,37,1235_4Hz.avi,dar23_oneeighty_4Hz.wav,dar,2,1,0.55352380000113,13,1.410711005,4.86592576666667,AsyncTheta
13,2,NaN,NaN,4,1010_4Hz.avi,ep15_oneeighty_4Hz.wav,ep,1,0,0.539785099997971,13,1.410711005,4.86592576666667,AsyncTheta
13,3,NaN,NaN,5,1332_4Hz.avi,acoustic44_oneeighty_4Hz.wav,acoustic,2,1,0.368193099999189,13,1.410711005,4.86592576666667,AsyncTheta
13,4,NaN,NaN,35,1211_4Hz.avi,choir33_oneeighty_4Hz.wav,choir,1,0,0.977985599998647,13,1.410711005,4.86592576666667,AsyncTheta
13,5,NaN,NaN,30,1282_4Hz.avi,dar1_oneeighty_4Hz.wav,dar,2,1,2.30314029999863,13,1.410711005,4.86592576666667,AsyncTheta
13,6,NaN,NaN,39,1088_4Hz.avi,acoustic47_zero_4Hz.wav,acoustic,1,1,0.437273299998196,13,1.410711005,4.86592576666667,SyncTheta
13,7,NaN,NaN,21,1291_4Hz.avi,acoustic11_zero_4Hz.wav,acoustic,1,1,0.515318499998102,13,1.410711005,4.86592576666667,SyncTheta
13,8,NaN,NaN,19,1188_4Hz.avi,choir7_zero_4Hz.wav,choir,1,1,0.514734399999725,13,1.410711005,4.86592576666667,SyncTheta
13,9,NaN,NaN,47,1261_4Hz.avi,willow10_zero_4Hz.wav,willow,1,1,0.470009100001334,13,1.410711005,4.86592576666667,SyncTheta
13,10,NaN,NaN,15,1302_4Hz.avi,synth25_oneeighty_4Hz.wav,synth,1,0,0.367719300000317,13,1.410711005,4.86592576666667,AsyncTheta
13,11,NaN,NaN,38,1068_4Hz.avi,orch29_zero_4Hz.wav,orch,1,1,0.330465800001548,13,1.410711005,4.86592576666667,SyncTheta
13,12,NaN,NaN,11,1001_4Hz.avi,dar22_zero_4Hz.wav,dar,2,0,0.365330299999187,13,1.410711005,4.86592576666667,SyncTheta
13,13,NaN,NaN,41,1092_4Hz.avi,guitar37_zero_4Hz.wav,guitar,2,0,0.552091199999268,13,1.410711005,4.86592576666667,SyncTheta
13,14,NaN,NaN,10,1100_4Hz.avi,ep10_oneeighty_4Hz.wav,ep,1,0,0.413860099997692,13,1.410711005,4.86592576666667,AsyncTheta
13,15,NaN,NaN,22,1351_4Hz.avi,acoustic1_zero_4Hz.wav,acoustic,1,1,0.386402899999666,13,1.410711005,4.86592576666667,SyncTheta
13,16,NaN,NaN,16,1285_4Hz.avi,acoustic37_oneeighty_4Hz.wav,acoustic,1,0,0.381154999999126,13,1.410711005,4.86592576666667,AsyncTheta
13,1,NaN,NaN,18,1446_4Hz.avi,synth5_oneeighty_4Hz.wav,synth,1,0,1.05670929999906,13,1.409374635,4.86592576666667,AsyncTheta
13,2,NaN,NaN,29,1281_4Hz.avi,ep34_zero_4Hz.wav,ep,1,1,0.390198099998088,13,1.409374635,4.86592576666667,SyncTheta
13,3,NaN,NaN,24,1251_4Hz.avi,willow16_oneeighty_4Hz.wav,willow,2,1,0.985267200001545,13,1.409374635,4.86592576666667,AsyncTheta
13,4,NaN,NaN,36,1307_4Hz.avi,dar13_zero_4Hz.wav,dar,1,1,0.371883499999967,13,1.409374635,4.86592576666667,SyncTheta
13,5,NaN,NaN,12,1102_4Hz.avi,dar2_zero_4Hz.wav,dar,1,1,0.30801000000065,13,1.409374635,4.86592576666667,SyncTheta
13,6,NaN,NaN,17,1043_4Hz.avi,ep8_zero_4Hz.wav,ep,1,1,0.48380630000247,13,1.409374635,4.86592576666667,SyncTheta
13,7,NaN,NaN,34,1409_4Hz.avi,willow12_zero_4Hz.wav,willow,1,1,1.80175390000295,13,1.409374635,4.86592576666667,SyncTheta
13,8,NaN,NaN,13,1075_4Hz.avi,orch19_oneeighty_4Hz.wav,orch,2,1,1.54029219999939,13,1.409374635,4.86592576666667,AsyncTheta
13,9,NaN,NaN,20,1245_4Hz.avi,guitar48_oneeighty_4Hz.wav,guitar,1,0,0.624888599999395,13,1.409374635,4.86592576666667,AsyncTheta
13,10,NaN,NaN,43,1438_4Hz.avi,choir18_oneeighty_4Hz.wav,choir,2,1,0.419953200002055,13,1.409374635,4.86592576666667,AsyncTheta
13,11,NaN,NaN,31,1246_4Hz.avi,guitar47_oneeighty_4Hz.wav,guitar,1,0,0.395339899998362,13,1.409374635,4.86592576666667,AsyncTheta
13,12,NaN,NaN,1,1267_4Hz.avi,dar6_zero_4Hz.wav,dar,2,0,0.575603400000546,13,1.409374635,4.86592576666667,SyncTheta
13,13,NaN,NaN,27,1120_4Hz.avi,choir36_oneeighty_4Hz.wav,choir,1,0,0.386312699996779,13,1.409374635,4.86592576666667,AsyncTheta
13,14,NaN,NaN,46,1400_4Hz.avi,ep44_zero_4Hz.wav,ep,1,1,0.381705100000545,13,1.409374635,4.86592576666667,SyncTheta
13,15,NaN,NaN,42,1056_4Hz.avi,acoustic12_zero_4Hz.wav,acoustic,1,1,0.366748299999017,13,1.409374635,4.86592576666667,SyncTheta
13,16,NaN,NaN,3,1194_4Hz.avi,willow13_oneeighty_4Hz.wav,willow,2,1,0.330571999998938,13,1.409374635,4.86592576666667,AsyncTheta
14,1,1,NaN,40,1418_4Hz.avi,willow20_oneeighty_4Hz.wav,willow,1,0,2.42245559999901,14,3.46130577833333,6.59161269166667,AsyncTheta
14,2,2,NaN,2,1371_4Hz.avi,ep7_oneeighty_4Hz.wav,ep,1,0,1.97209800000019,14,3.46130577833333,6.59161269166667,AsyncTheta
14,3,3,NaN,23,1011_4Hz.avi,orch38_zero_4Hz.wav,orch,2,0,1.46342189999996,14,3.46130577833333,6.59161269166667,SyncTheta
14,4,NaN,NaN,7,1124_4Hz.avi,dar24_oneeighty_4Hz.wav,dar,2,1,3.41357260000041,14,3.46130577833333,6.59161269166667,AsyncTheta
14,5,NaN,NaN,28,1436_4Hz.avi,guitar31_oneeighty_4Hz.wav,guitar,2,1,1.36695899999904,14,3.46130577833333,6.59161269166667,AsyncTheta
14,6,NaN,NaN,26,1377_4Hz.avi,acoustic48_oneeighty_4Hz.wav,acoustic,1,0,1.08237790000021,14,3.46130577833333,6.59161269166667,AsyncTheta
14,7,NaN,NaN,44,1257_4Hz.avi,orch14_zero_4Hz.wav,orch,2,0,1.10713079999914,14,3.46130577833333,6.59161269166667,SyncTheta
14,8,NaN,NaN,45,1228_4Hz.avi,orch31_zero_4Hz.wav,orch,1,1,0.761412899999414,14,3.46130577833333,6.59161269166667,SyncTheta
14,9,NaN,NaN,14,1151_4Hz.avi,dar8_zero_4Hz.wav,dar,2,0,0.651782599999933,14,3.46130577833333,6.59161269166667,SyncTheta
14,10,NaN,NaN,32,1326_4Hz.avi,acoustic32_zero_4Hz.wav,acoustic,2,0,1.17545319999954,14,3.46130577833333,6.59161269166667,SyncTheta
14,11,NaN,NaN,6,1226_4Hz.avi,choir4_zero_4Hz.wav,choir,2,0,0.757114000000001,14,3.46130577833333,6.59161269166667,SyncTheta
14,12,NaN,NaN,33,1219_4Hz.avi,acoustic25_oneeighty_4Hz.wav,acoustic,1,0,0.544328399999358,14,3.46130577833333,6.59161269166667,AsyncTheta
14,13,NaN,NaN,25,1402_4Hz.avi,choir38_oneeighty_4Hz.wav,choir,1,0,1.47584400000051,14,3.46130577833333,6.59161269166667,AsyncTheta
14,14,NaN,NaN,8,1376_4Hz.avi,willow15_oneeighty_4Hz.wav,willow,2,1,2.09563419999904,14,3.46130577833333,6.59161269166667,AsyncTheta
14,15,NaN,NaN,9,1424_4Hz.avi,orch1_zero_4Hz.wav,orch,1,1,0.311951399999089,14,3.46130577833333,6.59161269166667,SyncTheta
14,16,NaN,NaN,48,1028_4Hz.avi,acoustic28_zero_4Hz.wav,acoustic,1,1,0.806407699999909,14,3.46130577833333,6.59161269166667,SyncTheta
14,1,NaN,NaN,37,1235_4Hz.avi,dar23_oneeighty_4Hz.wav,dar,2,1,0.697493699999541,14,1.43954442666667,6.59161269166667,AsyncTheta
14,2,NaN,NaN,4,1010_4Hz.avi,ep15_oneeighty_4Hz.wav,ep,1,0,0.611356100000194,14,1.43954442666667,6.59161269166667,AsyncTheta
14,3,NaN,NaN,5,1332_4Hz.avi,acoustic44_zero_4Hz.wav,acoustic,2,0,1.4553135999995,14,1.43954442666667,6.59161269166667,SyncTheta
14,4,NaN,NaN,35,1211_4Hz.avi,choir33_zero_4Hz.wav,choir,2,0,0.870171800001117,14,1.43954442666667,6.59161269166667,SyncTheta
14,5,NaN,NaN,30,1282_4Hz.avi,dar1_oneeighty_4Hz.wav,dar,1,0,0.754075900000316,14,1.43954442666667,6.59161269166667,AsyncTheta
14,6,NaN,NaN,39,1088_4Hz.avi,acoustic47_zero_4Hz.wav,acoustic,1,1,0.734815099998741,14,1.43954442666667,6.59161269166667,SyncTheta
14,7,NaN,NaN,21,1291_4Hz.avi,acoustic11_oneeighty_4Hz.wav,acoustic,1,0,0.587999499999569,14,1.43954442666667,6.59161269166667,AsyncTheta
14,8,NaN,NaN,19,1188_4Hz.avi,choir7_oneeighty_4Hz.wav,choir,1,0,0.931078699999489,14,1.43954442666667,6.59161269166667,AsyncTheta
14,9,NaN,NaN,47,1261_4Hz.avi,willow10_zero_4Hz.wav,willow,1,1,0.386717699999281,14,1.43954442666667,6.59161269166667,SyncTheta
14,10,NaN,NaN,15,1302_4Hz.avi,synth25_zero_4Hz.wav,synth,1,1,0.304361900000004,14,1.43954442666667,6.59161269166667,SyncTheta
14,11,NaN,NaN,38,1068_4Hz.avi,orch29_oneeighty_4Hz.wav,orch,2,1,0.58473050000066,14,1.43954442666667,6.59161269166667,AsyncTheta
14,12,NaN,NaN,11,1001_4Hz.avi,dar22_zero_4Hz.wav,dar,1,1,0.401448100001289,14,1.43954442666667,6.59161269166667,SyncTheta
14,13,NaN,NaN,41,1092_4Hz.avi,guitar37_zero_4Hz.wav,guitar,2,0,0.368567000001349,14,1.43954442666667,6.59161269166667,SyncTheta
14,14,NaN,NaN,10,1100_4Hz.avi,ep10_oneeighty_4Hz.wav,ep,1,0,0.540944899999886,14,1.43954442666667,6.59161269166667,AsyncTheta
14,15,NaN,NaN,22,1351_4Hz.avi,acoustic1_zero_4Hz.wav,acoustic,1,1,0.562118800000462,14,1.43954442666667,6.59161269166667,SyncTheta
14,16,NaN,NaN,16,1285_4Hz.avi,acoustic37_oneeighty_4Hz.wav,acoustic,2,1,0.25847480000084,14,1.43954442666667,6.59161269166667,AsyncTheta
14,1,NaN,NaN,18,1446_4Hz.avi,synth5_oneeighty_4Hz.wav,synth,2,1,0.32381869999881,14,1.49225760833333,6.59161269166667,AsyncTheta
14,2,NaN,NaN,29,1281_4Hz.avi,ep34_zero_4Hz.wav,ep,2,0,0.555213000001459,14,1.49225760833333,6.59161269166667,SyncTheta
14,3,NaN,NaN,24,1251_4Hz.avi,willow16_zero_4Hz.wav,willow,2,0,1.00750919999882,14,1.49225760833333,6.59161269166667,SyncTheta
14,4,NaN,NaN,36,1307_4Hz.avi,dar13_oneeighty_4Hz.wav,dar,1,0,1.42217849999906,14,1.49225760833333,6.59161269166667,AsyncTheta
14,5,NaN,NaN,12,1102_4Hz.avi,dar2_oneeighty_4Hz.wav,dar,2,1,0.965097399999649,14,1.49225760833333,6.59161269166667,AsyncTheta
14,6,NaN,NaN,17,1043_4Hz.avi,ep8_zero_4Hz.wav,ep,1,1,0.977080299999216,14,1.49225760833333,6.59161269166667,SyncTheta
14,7,NaN,NaN,34,1409_4Hz.avi,willow12_zero_4Hz.wav,willow,1,1,0.628999399999884,14,1.49225760833333,6.59161269166667,SyncTheta
14,8,NaN,NaN,13,1075_4Hz.avi,orch19_zero_4Hz.wav,orch,2,0,0.367206599999918,14,1.49225760833333,6.59161269166667,SyncTheta
14,9,NaN,NaN,20,1245_4Hz.avi,guitar48_oneeighty_4Hz.wav,guitar,1,0,1.14526039999873,14,1.49225760833333,6.59161269166667,AsyncTheta
14,10,NaN,NaN,43,1438_4Hz.avi,choir18_oneeighty_4Hz.wav,choir,2,1,1.26749580000069,14,1.49225760833333,6.59161269166667,AsyncTheta
14,11,NaN,NaN,31,1246_4Hz.avi,guitar47_oneeighty_4Hz.wav,guitar,2,1,0.779111900001226,14,1.49225760833333,6.59161269166667,AsyncTheta
14,12,NaN,NaN,1,1267_4Hz.avi,dar6_oneeighty_4Hz.wav,dar,1,0,2.00553659999969,14,1.49225760833333,6.59161269166667,AsyncTheta
14,13,NaN,NaN,27,1120_4Hz.avi,choir36_zero_4Hz.wav,choir,1,1,1.05327840000064,14,1.49225760833333,6.59161269166667,SyncTheta
14,14,NaN,NaN,46,1400_4Hz.avi,ep44_zero_4Hz.wav,ep,2,0,1.72083700000076,14,1.49225760833333,6.59161269166667,SyncTheta
14,15,NaN,NaN,42,1056_4Hz.avi,acoustic12_zero_4Hz.wav,acoustic,2,0,0.697712499999398,14,1.49225760833333,6.59161269166667,SyncTheta
14,16,NaN,NaN,3,1194_4Hz.avi,willow13_oneeighty_4Hz.wav,willow,2,1,0.766233800000919,14,1.49225760833333,6.59161269166667,AsyncTheta
15,1,1,NaN,40,1418_4Hz.avi,willow20_zero_4Hz.wav,willow,1,1,3.48201379999955,15,3.95675369333333,7.669764695,SyncTheta
15,2,2,NaN,2,1371_4Hz.avi,ep7_oneeighty_4Hz.wav,ep,2,1,1.78122390000135,15,3.95675369333333,7.669764695,AsyncTheta
15,3,3,NaN,23,1011_4Hz.avi,orch38_oneeighty_4Hz.wav,orch,2,1,2.97362109999995,15,3.95675369333333,7.669764695,AsyncTheta
15,4,NaN,NaN,7,1124_4Hz.avi,dar24_oneeighty_4Hz.wav,dar,2,1,1.35900650000076,15,3.95675369333333,7.669764695,AsyncTheta
15,5,NaN,NaN,28,1436_4Hz.avi,guitar31_oneeighty_4Hz.wav,guitar,1,0,1.6439277999998,15,3.95675369333333,7.669764695,AsyncTheta
15,6,NaN,NaN,26,1377_4Hz.avi,acoustic48_zero_4Hz.wav,acoustic,2,0,2.49060500000087,15,3.95675369333333,7.669764695,SyncTheta
15,7,NaN,NaN,44,1257_4Hz.avi,orch14_oneeighty_4Hz.wav,orch,2,1,0.997990899999422,15,3.95675369333333,7.669764695,AsyncTheta
15,8,NaN,NaN,45,1228_4Hz.avi,orch31_oneeighty_4Hz.wav,orch,2,1,3.94377200000054,15,3.95675369333333,7.669764695,AsyncTheta
15,9,NaN,NaN,14,1151_4Hz.avi,dar8_zero_4Hz.wav,dar,1,1,0.895634999998947,15,3.95675369333333,7.669764695,SyncTheta
15,10,NaN,NaN,32,1326_4Hz.avi,acoustic32_zero_4Hz.wav,acoustic,2,0,1.69081649999862,15,3.95675369333333,7.669764695,SyncTheta
15,11,NaN,NaN,6,1226_4Hz.avi,choir4_zero_4Hz.wav,choir,1,1,1.41208189999998,15,3.95675369333333,7.669764695,SyncTheta
15,12,NaN,NaN,33,1219_4Hz.avi,acoustic25_zero_4Hz.wav,acoustic,1,1,2.38159169999926,15,3.95675369333333,7.669764695,SyncTheta
15,13,NaN,NaN,25,1402_4Hz.avi,choir38_zero_4Hz.wav,choir,1,1,0.555784100000892,15,3.95675369333333,7.669764695,SyncTheta
15,14,NaN,NaN,8,1376_4Hz.avi,willow15_oneeighty_4Hz.wav,willow,2,1,1.66369479999958,15,3.95675369333333,7.669764695,AsyncTheta
15,15,NaN,NaN,9,1424_4Hz.avi,orch1_oneeighty_4Hz.wav,orch,1,0,0.746269899998879,15,3.95675369333333,7.669764695,AsyncTheta
15,16,NaN,NaN,48,1028_4Hz.avi,acoustic28_zero_4Hz.wav,acoustic,1,1,1.59135190000052,15,3.95675369333333,7.669764695,SyncTheta
15,1,NaN,NaN,37,1235_4Hz.avi,dar23_zero_4Hz.wav,dar,1,1,1.18573840000136,15,1.72784204333333,7.669764695,SyncTheta
15,2,NaN,NaN,4,1010_4Hz.avi,ep15_zero_4Hz.wav,ep,1,1,2.95463359999849,15,1.72784204333333,7.669764695,SyncTheta
15,3,NaN,NaN,5,1332_4Hz.avi,acoustic44_oneeighty_4Hz.wav,acoustic,1,0,3.46211070000027,15,1.72784204333333,7.669764695,AsyncTheta
15,4,NaN,NaN,35,1211_4Hz.avi,choir33_zero_4Hz.wav,choir,2,0,0.604214500001035,15,1.72784204333333,7.669764695,SyncTheta
15,5,NaN,NaN,30,1282_4Hz.avi,dar1_oneeighty_4Hz.wav,dar,2,1,2.04799470000034,15,1.72784204333333,7.669764695,AsyncTheta
15,6,NaN,NaN,39,1088_4Hz.avi,acoustic47_zero_4Hz.wav,acoustic,1,1,2.1935883999995,15,1.72784204333333,7.669764695,SyncTheta
15,7,NaN,NaN,21,1291_4Hz.avi,acoustic11_zero_4Hz.wav,acoustic,1,1,1.3457455000007,15,1.72784204333333,7.669764695,SyncTheta
15,8,NaN,NaN,19,1188_4Hz.avi,choir7_oneeighty_4Hz.wav,choir,1,0,2.2642266999992,15,1.72784204333333,7.669764695,AsyncTheta
15,9,NaN,NaN,47,1261_4Hz.avi,willow10_oneeighty_4Hz.wav,willow,2,1,0.678586300000461,15,1.72784204333333,7.669764695,AsyncTheta
15,10,NaN,NaN,15,1302_4Hz.avi,synth25_oneeighty_4Hz.wav,synth,1,0,1.72427440000138,15,1.72784204333333,7.669764695,AsyncTheta
15,11,NaN,NaN,38,1068_4Hz.avi,orch29_oneeighty_4Hz.wav,orch,1,0,1.025835800001,15,1.72784204333333,7.669764695,AsyncTheta
15,12,NaN,NaN,11,1001_4Hz.avi,dar22_zero_4Hz.wav,dar,1,1,1.58908289999999,15,1.72784204333333,7.669764695,SyncTheta
15,13,NaN,NaN,41,1092_4Hz.avi,guitar37_oneeighty_4Hz.wav,guitar,2,1,0.885395399998743,15,1.72784204333333,7.669764695,AsyncTheta
15,14,NaN,NaN,10,1100_4Hz.avi,ep10_zero_4Hz.wav,ep,2,0,1.83823269999993,15,1.72784204333333,7.669764695,SyncTheta
15,15,NaN,NaN,22,1351_4Hz.avi,acoustic1_oneeighty_4Hz.wav,acoustic,2,1,4.50123840000015,15,1.72784204333333,7.669764695,AsyncTheta
15,16,NaN,NaN,16,1285_4Hz.avi,acoustic37_zero_4Hz.wav,acoustic,1,1,1.81061149999914,15,1.72784204333333,7.669764695,SyncTheta
15,1,NaN,NaN,18,1446_4Hz.avi,synth5_oneeighty_4Hz.wav,synth,2,1,1.15260300000045,15,1.57276522,7.669764695,AsyncTheta
15,2,NaN,NaN,29,1281_4Hz.avi,ep34_oneeighty_4Hz.wav,ep,1,0,2.34854069999892,15,1.57276522,7.669764695,AsyncTheta
15,3,NaN,NaN,24,1251_4Hz.avi,willow16_zero_4Hz.wav,willow,2,0,0.742606899999373,15,1.57276522,7.669764695,SyncTheta
15,4,NaN,NaN,36,1307_4Hz.avi,dar13_oneeighty_4Hz.wav,dar,2,1,0.792614300000423,15,1.57276522,7.669764695,AsyncTheta
15,5,NaN,NaN,12,1102_4Hz.avi,dar2_oneeighty_4Hz.wav,dar,2,1,0.85175899999922,15,1.57276522,7.669764695,AsyncTheta
15,6,NaN,NaN,17,1043_4Hz.avi,ep8_oneeighty_4Hz.wav,ep,1,0,0.531678200000897,15,1.57276522,7.669764695,AsyncTheta
15,7,NaN,NaN,34,1409_4Hz.avi,willow12_zero_4Hz.wav,willow,1,1,1.63026639999953,15,1.57276522,7.669764695,SyncTheta
15,8,NaN,NaN,13,1075_4Hz.avi,orch19_zero_4Hz.wav,orch,1,1,1.92713100000037,15,1.57276522,7.669764695,SyncTheta
15,9,NaN,NaN,20,1245_4Hz.avi,guitar48_zero_4Hz.wav,guitar,1,1,0.799018199999409,15,1.57276522,7.669764695,SyncTheta
15,10,NaN,NaN,43,1438_4Hz.avi,choir18_oneeighty_4Hz.wav,choir,1,0,0.800827600000048,15,1.57276522,7.669764695,AsyncTheta
15,11,NaN,NaN,31,1246_4Hz.avi,guitar47_zero_4Hz.wav,guitar,1,1,2.1326140000001,15,1.57276522,7.669764695,SyncTheta
15,12,NaN,NaN,1,1267_4Hz.avi,dar6_oneeighty_4Hz.wav,dar,2,1,0.592613300001176,15,1.57276522,7.669764695,AsyncTheta
15,13,NaN,NaN,27,1120_4Hz.avi,choir36_zero_4Hz.wav,choir,1,1,1.08617090000007,15,1.57276522,7.669764695,SyncTheta
15,14,NaN,NaN,46,1400_4Hz.avi,ep44_zero_4Hz.wav,ep,2,0,1.75134769999931,15,1.57276522,7.669764695,SyncTheta
15,15,NaN,NaN,42,1056_4Hz.avi,acoustic12_zero_4Hz.wav,acoustic,2,0,2.41184120000071,15,1.57276522,7.669764695,SyncTheta
15,16,NaN,NaN,3,1194_4Hz.avi,willow13_oneeighty_4Hz.wav,willow,2,1,1.70411269999931,15,1.57276522,7.669764695,AsyncTheta
16,1,1,NaN,40,1418_4Hz.avi,willow20_oneeighty_4Hz.wav,willow,1,0,2.5441426000034,16,3.42353463,6.44400633,AsyncTheta
16,2,2,NaN,2,1371_4Hz.avi,ep7_zero_4Hz.wav,ep,1,1,0.97477169999911,16,3.42353463,6.44400633,SyncTheta
16,3,3,NaN,23,1011_4Hz.avi,orch38_zero_4Hz.wav,orch,1,1,1.3267949000001,16,3.42353463,6.44400633,SyncTheta
16,4,NaN,NaN,7,1124_4Hz.avi,dar24_oneeighty_4Hz.wav,dar,1,0,1.31387090000135,16,3.42353463,6.44400633,AsyncTheta
16,5,NaN,NaN,28,1436_4Hz.avi,guitar31_zero_4Hz.wav,guitar,2,0,0.595388000001549,16,3.42353463,6.44400633,SyncTheta
16,6,NaN,NaN,26,1377_4Hz.avi,acoustic48_oneeighty_4Hz.wav,acoustic,1,0,2.40491750000001,16,3.42353463,6.44400633,AsyncTheta
16,7,NaN,NaN,44,1257_4Hz.avi,orch14_zero_4Hz.wav,orch,1,1,1.15693260000262,16,3.42353463,6.44400633,SyncTheta
16,8,NaN,NaN,45,1228_4Hz.avi,orch31_zero_4Hz.wav,orch,2,0,2.89416820000042,16,3.42353463,6.44400633,SyncTheta
16,9,NaN,NaN,14,1151_4Hz.avi,dar8_zero_4Hz.wav,dar,2,0,0.658911999998963,16,3.42353463,6.44400633,SyncTheta
16,10,NaN,NaN,32,1326_4Hz.avi,acoustic32_oneeighty_4Hz.wav,acoustic,2,1,1.89816219999921,16,3.42353463,6.44400633,AsyncTheta
16,11,NaN,NaN,6,1226_4Hz.avi,choir4_oneeighty_4Hz.wav,choir,1,0,0.740752300000167,16,3.42353463,6.44400633,AsyncTheta
16,12,NaN,NaN,33,1219_4Hz.avi,acoustic25_oneeighty_4Hz.wav,acoustic,1,0,0.932170500000211,16,3.42353463,6.44400633,AsyncTheta
16,13,NaN,NaN,25,1402_4Hz.avi,choir38_zero_4Hz.wav,choir,1,1,0.612585499999113,16,3.42353463,6.44400633,SyncTheta
16,14,NaN,NaN,8,1376_4Hz.avi,willow15_oneeighty_4Hz.wav,willow,2,1,0.584283600001072,16,3.42353463,6.44400633,AsyncTheta
16,15,NaN,NaN,9,1424_4Hz.avi,orch1_zero_4Hz.wav,orch,2,0,0.423626499999955,16,3.42353463,6.44400633,SyncTheta
16,16,NaN,NaN,48,1028_4Hz.avi,acoustic28_oneeighty_4Hz.wav,acoustic,2,1,1.29900400000042,16,3.42353463,6.44400633,AsyncTheta
16,1,NaN,NaN,37,1235_4Hz.avi,dar23_oneeighty_4Hz.wav,dar,1,0,1.75702190000084,16,1.46544317666667,6.44400633,AsyncTheta
16,2,NaN,NaN,4,1010_4Hz.avi,ep15_oneeighty_4Hz.wav,ep,1,0,0.74953529999766,16,1.46544317666667,6.44400633,AsyncTheta
16,3,NaN,NaN,5,1332_4Hz.avi,acoustic44_oneeighty_4Hz.wav,acoustic,1,0,0.682097100001556,16,1.46544317666667,6.44400633,AsyncTheta
16,4,NaN,NaN,35,1211_4Hz.avi,choir33_zero_4Hz.wav,choir,2,0,0.399362399999518,16,1.46544317666667,6.44400633,SyncTheta
16,5,NaN,NaN,30,1282_4Hz.avi,dar1_oneeighty_4Hz.wav,dar,2,1,0.942256400001497,16,1.46544317666667,6.44400633,AsyncTheta
16,6,NaN,NaN,39,1088_4Hz.avi,acoustic47_oneeighty_4Hz.wav,acoustic,1,0,1.37103460000071,16,1.46544317666667,6.44400633,AsyncTheta
16,7,NaN,NaN,21,1291_4Hz.avi,acoustic11_zero_4Hz.wav,acoustic,1,1,0.544572499999049,16,1.46544317666667,6.44400633,SyncTheta
16,8,NaN,NaN,19,1188_4Hz.avi,choir7_oneeighty_4Hz.wav,choir,2,1,0.45981810000012,16,1.46544317666667,6.44400633,AsyncTheta
16,9,NaN,NaN,47,1261_4Hz.avi,willow10_oneeighty_4Hz.wav,willow,1,0,0.676626899999974,16,1.46544317666667,6.44400633,AsyncTheta
16,10,NaN,NaN,15,1302_4Hz.avi,synth25_zero_4Hz.wav,synth,1,1,0.60138680000091,16,1.46544317666667,6.44400633,SyncTheta
16,11,NaN,NaN,38,1068_4Hz.avi,orch29_zero_4Hz.wav,orch,2,0,1.17173000000184,16,1.46544317666667,6.44400633,SyncTheta
16,12,NaN,NaN,11,1001_4Hz.avi,dar22_zero_4Hz.wav,dar,1,1,1.03487529999984,16,1.46544317666667,6.44400633,SyncTheta
16,13,NaN,NaN,41,1092_4Hz.avi,guitar37_oneeighty_4Hz.wav,guitar,1,0,0.767014499997458,16,1.46544317666667,6.44400633,AsyncTheta
16,14,NaN,NaN,10,1100_4Hz.avi,ep10_zero_4Hz.wav,ep,2,0,0.504913900000247,16,1.46544317666667,6.44400633,SyncTheta
16,15,NaN,NaN,22,1351_4Hz.avi,acoustic1_zero_4Hz.wav,acoustic,2,0,0.668677199999365,16,1.46544317666667,6.44400633,SyncTheta
16,16,NaN,NaN,16,1285_4Hz.avi,acoustic37_zero_4Hz.wav,acoustic,2,0,1.99499469999864,16,1.46544317666667,6.44400633,SyncTheta
16,1,NaN,NaN,18,1446_4Hz.avi,synth5_oneeighty_4Hz.wav,synth,1,0,0.379633699998521,16,1.35388954,6.44400633,AsyncTheta
16,2,NaN,NaN,29,1281_4Hz.avi,ep34_oneeighty_4Hz.wav,ep,2,1,0.480127500002709,16,1.35388954,6.44400633,AsyncTheta
16,3,NaN,NaN,24,1251_4Hz.avi,willow16_oneeighty_4Hz.wav,willow,2,1,0.576874099999259,16,1.35388954,6.44400633,AsyncTheta
16,4,NaN,NaN,36,1307_4Hz.avi,dar13_zero_4Hz.wav,dar,2,0,0.790546899999754,16,1.35388954,6.44400633,SyncTheta
16,5,NaN,NaN,12,1102_4Hz.avi,dar2_zero_4Hz.wav,dar,1,1,0.377142200002709,16,1.35388954,6.44400633,SyncTheta
16,6,NaN,NaN,17,1043_4Hz.avi,ep8_zero_4Hz.wav,ep,1,1,0.627252500002214,16,1.35388954,6.44400633,SyncTheta
16,7,NaN,NaN,34,1409_4Hz.avi,willow12_zero_4Hz.wav,willow,1,1,0.395120100001805,16,1.35388954,6.44400633,SyncTheta
16,8,NaN,NaN,13,1075_4Hz.avi,orch19_oneeighty_4Hz.wav,orch,1,0,0.533095599999797,16,1.35388954,6.44400633,AsyncTheta
16,9,NaN,NaN,20,1245_4Hz.avi,guitar48_oneeighty_4Hz.wav,guitar,2,1,0.318653700000141,16,1.35388954,6.44400633,AsyncTheta
16,10,NaN,NaN,43,1438_4Hz.avi,choir18_oneeighty_4Hz.wav,choir,1,0,0.368938899999193,16,1.35388954,6.44400633,AsyncTheta
16,11,NaN,NaN,31,1246_4Hz.avi,guitar47_zero_4Hz.wav,guitar,1,1,0.539211600000272,16,1.35388954,6.44400633,SyncTheta
16,12,NaN,NaN,1,1267_4Hz.avi,dar6_zero_4Hz.wav,dar,1,1,0.659053200000926,16,1.35388954,6.44400633,SyncTheta
16,13,NaN,NaN,27,1120_4Hz.avi,choir36_zero_4Hz.wav,choir,2,0,0.492367299997568,16,1.35388954,6.44400633,SyncTheta
16,14,NaN,NaN,46,1400_4Hz.avi,ep44_oneeighty_4Hz.wav,ep,2,1,0.841727799997898,16,1.35388954,6.44400633,AsyncTheta
16,15,NaN,NaN,42,1056_4Hz.avi,acoustic12_zero_4Hz.wav,acoustic,2,0,0.359068499998102,16,1.35388954,6.44400633,SyncTheta
16,16,NaN,NaN,3,1194_4Hz.avi,willow13_oneeighty_4Hz.wav,willow,1,0,0.458732700000837,16,1.35388954,6.44400633,AsyncTheta
17,1,1,NaN,40,1418_4Hz.avi,willow20_oneeighty_4Hz.wav,willow,2,1,13.2602302999985,17,8.19413372166667,11.8187897066667,AsyncTheta
17,2,2,NaN,2,1371_4Hz.avi,ep7_oneeighty_4Hz.wav,ep,2,1,12.6691903999999,17,8.19413372166667,11.8187897066667,AsyncTheta
17,3,3,NaN,23,1011_4Hz.avi,orch38_zero_4Hz.wav,orch,2,0,2.34516029999941,17,8.19413372166667,11.8187897066667,SyncTheta
17,4,NaN,NaN,7,1124_4Hz.avi,dar24_oneeighty_4Hz.wav,dar,2,1,231.803110200002,17,8.19413372166667,11.8187897066667,AsyncTheta
17,5,NaN,NaN,28,1436_4Hz.avi,guitar31_oneeighty_4Hz.wav,guitar,2,1,3.83183070000086,17,8.19413372166667,11.8187897066667,AsyncTheta
17,6,NaN,NaN,26,1377_4Hz.avi,acoustic48_zero_4Hz.wav,acoustic,2,0,3.65071729999909,17,8.19413372166667,11.8187897066667,SyncTheta
17,7,NaN,NaN,44,1257_4Hz.avi,orch14_zero_4Hz.wav,orch,1,1,0.459593400002632,17,8.19413372166667,11.8187897066667,SyncTheta
17,8,NaN,NaN,45,1228_4Hz.avi,orch31_oneeighty_4Hz.wav,orch,2,1,3.99776439999914,17,8.19413372166667,11.8187897066667,AsyncTheta
17,9,NaN,NaN,14,1151_4Hz.avi,dar8_oneeighty_4Hz.wav,dar,2,1,5.10471899999902,17,8.19413372166667,11.8187897066667,AsyncTheta
17,10,NaN,NaN,32,1326_4Hz.avi,acoustic32_zero_4Hz.wav,acoustic,2,0,2.17446879999989,17,8.19413372166667,11.8187897066667,SyncTheta
17,11,NaN,NaN,6,1226_4Hz.avi,choir4_zero_4Hz.wav,choir,1,1,2.84877160000178,17,8.19413372166667,11.8187897066667,SyncTheta
17,12,NaN,NaN,33,1219_4Hz.avi,acoustic25_zero_4Hz.wav,acoustic,1,1,3.78247999999803,17,8.19413372166667,11.8187897066667,SyncTheta
17,13,NaN,NaN,25,1402_4Hz.avi,choir38_oneeighty_4Hz.wav,choir,1,0,2.02518869999767,17,8.19413372166667,11.8187897066667,AsyncTheta
17,14,NaN,NaN,8,1376_4Hz.avi,willow15_zero_4Hz.wav,willow,1,1,1.15079560000231,17,8.19413372166667,11.8187897066667,SyncTheta
17,15,NaN,NaN,9,1424_4Hz.avi,orch1_zero_4Hz.wav,orch,1,1,0.983836499999597,17,8.19413372166667,11.8187897066667,SyncTheta
17,16,NaN,NaN,48,1028_4Hz.avi,acoustic28_oneeighty_4Hz.wav,acoustic,2,1,2.2418041000019,17,8.19413372166667,11.8187897066667,AsyncTheta
17,1,NaN,NaN,37,1235_4Hz.avi,dar23_zero_4Hz.wav,dar,1,1,2.38088310000239,17,1.59081065833333,11.8187897066667,SyncTheta
17,2,NaN,NaN,4,1010_4Hz.avi,ep15_zero_4Hz.wav,ep,1,1,1.05811589999939,17,1.59081065833333,11.8187897066667,SyncTheta
17,3,NaN,NaN,5,1332_4Hz.avi,acoustic44_zero_4Hz.wav,acoustic,1,1,2.38390369999979,17,1.59081065833333,11.8187897066667,SyncTheta
17,4,NaN,NaN,35,1211_4Hz.avi,choir33_oneeighty_4Hz.wav,choir,2,1,0.578005100000155,17,1.59081065833333,11.8187897066667,AsyncTheta
17,5,NaN,NaN,30,1282_4Hz.avi,dar1_zero_4Hz.wav,dar,2,0,0.505348999999114,17,1.59081065833333,11.8187897066667,SyncTheta
17,6,NaN,NaN,39,1088_4Hz.avi,acoustic47_zero_4Hz.wav,acoustic,2,0,2.97379929999806,17,1.59081065833333,11.8187897066667,SyncTheta
17,7,NaN,NaN,21,1291_4Hz.avi,acoustic11_oneeighty_4Hz.wav,acoustic,1,0,0.950807300003362,17,1.59081065833333,11.8187897066667,AsyncTheta
17,8,NaN,NaN,19,1188_4Hz.avi,choir7_oneeighty_4Hz.wav,choir,1,0,0.643061800001306,17,1.59081065833333,11.8187897066667,AsyncTheta
17,9,NaN,NaN,47,1261_4Hz.avi,willow10_oneeighty_4Hz.wav,willow,1,0,0.607432000000699,17,1.59081065833333,11.8187897066667,AsyncTheta
17,10,NaN,NaN,15,1302_4Hz.avi,synth25_zero_4Hz.wav,synth,1,1,0.608949800000119,17,1.59081065833333,11.8187897066667,SyncTheta
17,11,NaN,NaN,38,1068_4Hz.avi,orch29_oneeighty_4Hz.wav,orch,1,0,0.559724599999754,17,1.59081065833333,11.8187897066667,AsyncTheta
17,12,NaN,NaN,11,1001_4Hz.avi,dar22_oneeighty_4Hz.wav,dar,1,0,0.582459599998401,17,1.59081065833333,11.8187897066667,AsyncTheta
17,13,NaN,NaN,41,1092_4Hz.avi,guitar37_oneeighty_4Hz.wav,guitar,1,0,0.886390800002118,17,1.59081065833333,11.8187897066667,AsyncTheta
17,14,NaN,NaN,10,1100_4Hz.avi,ep10_oneeighty_4Hz.wav,ep,1,0,1.46293239999795,17,1.59081065833333,11.8187897066667,AsyncTheta
17,15,NaN,NaN,22,1351_4Hz.avi,acoustic1_zero_4Hz.wav,acoustic,2,0,1.41936150000038,17,1.59081065833333,11.8187897066667,SyncTheta
17,16,NaN,NaN,16,1285_4Hz.avi,acoustic37_zero_4Hz.wav,acoustic,1,1,3.70798540000033,17,1.59081065833333,11.8187897066667,SyncTheta
17,1,NaN,NaN,18,1446_4Hz.avi,synth5_zero_4Hz.wav,synth,2,0,0.552453600001172,17,1.81184458333333,11.8187897066667,SyncTheta
17,2,NaN,NaN,29,1281_4Hz.avi,ep34_oneeighty_4Hz.wav,ep,1,0,1.09335040000224,17,1.81184458333333,11.8187897066667,AsyncTheta
17,3,NaN,NaN,24,1251_4Hz.avi,willow16_zero_4Hz.wav,willow,1,1,4.1183336000031,17,1.81184458333333,11.8187897066667,SyncTheta
17,4,NaN,NaN,36,1307_4Hz.avi,dar13_zero_4Hz.wav,dar,2,0,4.47360959999787,17,1.81184458333333,11.8187897066667,SyncTheta
17,5,NaN,NaN,12,1102_4Hz.avi,dar2_oneeighty_4Hz.wav,dar,2,1,0.325937099998555,17,1.81184458333333,11.8187897066667,AsyncTheta
17,6,NaN,NaN,17,1043_4Hz.avi,ep8_zero_4Hz.wav,ep,1,1,1.23981719999938,17,1.81184458333333,11.8187897066667,SyncTheta
17,7,NaN,NaN,34,1409_4Hz.avi,willow12_oneeighty_4Hz.wav,willow,1,0,3.38557410000067,17,1.81184458333333,11.8187897066667,AsyncTheta
17,8,NaN,NaN,13,1075_4Hz.avi,orch19_oneeighty_4Hz.wav,orch,1,0,3.14312689999861,17,1.81184458333333,11.8187897066667,AsyncTheta
17,9,NaN,NaN,20,1245_4Hz.avi,guitar48_oneeighty_4Hz.wav,guitar,2,1,0.747708599999896,17,1.81184458333333,11.8187897066667,AsyncTheta
17,10,NaN,NaN,43,1438_4Hz.avi,choir18_oneeighty_4Hz.wav,choir,1,0,2.5008620999979,17,1.81184458333333,11.8187897066667,AsyncTheta
17,11,NaN,NaN,31,1246_4Hz.avi,guitar47_zero_4Hz.wav,guitar,1,1,0.842552999998588,17,1.81184458333333,11.8187897066667,SyncTheta
17,12,NaN,NaN,1,1267_4Hz.avi,dar6_oneeighty_4Hz.wav,dar,2,1,0.707683200002066,17,1.81184458333333,11.8187897066667,AsyncTheta
17,13,NaN,NaN,27,1120_4Hz.avi,choir36_zero_4Hz.wav,choir,2,0,1.59715510000024,17,1.81184458333333,11.8187897066667,SyncTheta
17,14,NaN,NaN,46,1400_4Hz.avi,ep44_zero_4Hz.wav,ep,2,0,1.94524240000101,17,1.81184458333333,11.8187897066667,SyncTheta
17,15,NaN,NaN,42,1056_4Hz.avi,acoustic12_oneeighty_4Hz.wav,acoustic,2,1,5.24734810000155,17,1.81184458333333,11.8187897066667,AsyncTheta
17,16,NaN,NaN,3,1194_4Hz.avi,willow13_zero_4Hz.wav,willow,2,0,0.579839499998343,17,1.81184458333333,11.8187897066667,SyncTheta
18,1,1,NaN,40,1418_4Hz.avi,willow20_zero_4Hz.wav,willow,1,1,3.47850590000053,18,3.92323125,7.78764167,SyncTheta
18,2,2,NaN,2,1371_4Hz.avi,ep7_oneeighty_4Hz.wav,ep,1,0,3.75515510000059,18,3.92323125,7.78764167,AsyncTheta
18,3,3,NaN,23,1011_4Hz.avi,orch38_zero_4Hz.wav,orch,1,1,3.60206279999966,18,3.92323125,7.78764167,SyncTheta
18,4,NaN,NaN,7,1124_4Hz.avi,dar24_zero_4Hz.wav,dar,2,0,1.96544329999961,18,3.92323125,7.78764167,SyncTheta
18,5,NaN,NaN,28,1436_4Hz.avi,guitar31_zero_4Hz.wav,guitar,1,1,0.73698449999938,18,3.92323125,7.78764167,SyncTheta
18,6,NaN,NaN,26,1377_4Hz.avi,acoustic48_zero_4Hz.wav,acoustic,1,1,2.18207000000075,18,3.92323125,7.78764167,SyncTheta
18,7,NaN,NaN,44,1257_4Hz.avi,orch14_oneeighty_4Hz.wav,orch,1,0,0.891898400000173,18,3.92323125,7.78764167,AsyncTheta
18,8,NaN,NaN,45,1228_4Hz.avi,orch31_oneeighty_4Hz.wav,orch,2,1,3.32876850000048,18,3.92323125,7.78764167,AsyncTheta
18,9,NaN,NaN,14,1151_4Hz.avi,dar8_zero_4Hz.wav,dar,1,1,1.2946750000001,18,3.92323125,7.78764167,SyncTheta
18,10,NaN,NaN,32,1326_4Hz.avi,acoustic32_oneeighty_4Hz.wav,acoustic,2,1,2.17576439999993,18,3.92323125,7.78764167,AsyncTheta
18,11,NaN,NaN,6,1226_4Hz.avi,choir4_oneeighty_4Hz.wav,choir,1,0,4.4712698000003,18,3.92323125,7.78764167,AsyncTheta
18,12,NaN,NaN,33,1219_4Hz.avi,acoustic25_oneeighty_4Hz.wav,acoustic,2,1,3.33241990000079,18,3.92323125,7.78764167,AsyncTheta
18,13,NaN,NaN,25,1402_4Hz.avi,choir38_oneeighty_4Hz.wav,choir,2,1,1.84966619999977,18,3.92323125,7.78764167,AsyncTheta
18,14,NaN,NaN,8,1376_4Hz.avi,willow15_zero_4Hz.wav,willow,2,0,0.889490499999738,18,3.92323125,7.78764167,SyncTheta
18,15,NaN,NaN,9,1424_4Hz.avi,orch1_oneeighty_4Hz.wav,orch,2,1,7.95648149999943,18,3.92323125,7.78764167,AsyncTheta
18,16,NaN,NaN,48,1028_4Hz.avi,acoustic28_zero_4Hz.wav,acoustic,2,0,3.50427920000038,18,3.92323125,7.78764167,SyncTheta
18,1,NaN,NaN,37,1235_4Hz.avi,dar23_zero_4Hz.wav,dar,2,0,2.54833179999969,18,1.82425330333333,7.78764167,SyncTheta
18,2,NaN,NaN,4,1010_4Hz.avi,ep15_oneeighty_4Hz.wav,ep,1,0,2.35139859999981,18,1.82425330333333,7.78764167,AsyncTheta
18,3,NaN,NaN,5,1332_4Hz.avi,acoustic44_zero_4Hz.wav,acoustic,2,0,4.93912720000026,18,1.82425330333333,7.78764167,SyncTheta
18,4,NaN,NaN,35,1211_4Hz.avi,choir33_oneeighty_4Hz.wav,choir,1,0,0.557833799999571,18,1.82425330333333,7.78764167,AsyncTheta
18,5,NaN,NaN,30,1282_4Hz.avi,dar1_oneeighty_4Hz.wav,dar,1,0,2.49207099999967,18,1.82425330333333,7.78764167,AsyncTheta
18,6,NaN,NaN,39,1088_4Hz.avi,acoustic47_oneeighty_4Hz.wav,acoustic,2,1,4.18599949999953,18,1.82425330333333,7.78764167,AsyncTheta
18,7,NaN,NaN,21,1291_4Hz.avi,acoustic11_zero_4Hz.wav,acoustic,2,0,1.78216380000049,18,1.82425330333333,7.78764167,SyncTheta
18,8,NaN,NaN,19,1188_4Hz.avi,choir7_oneeighty_4Hz.wav,choir,1,0,1.02568450000035,18,1.82425330333333,7.78764167,AsyncTheta
18,9,NaN,NaN,47,1261_4Hz.avi,willow10_zero_4Hz.wav,willow,2,0,5.32311320000008,18,1.82425330333333,7.78764167,SyncTheta
18,10,NaN,NaN,15,1302_4Hz.avi,synth25_zero_4Hz.wav,synth,1,1,0.936357900000075,18,1.82425330333333,7.78764167,SyncTheta
18,11,NaN,NaN,38,1068_4Hz.avi,orch29_zero_4Hz.wav,orch,1,1,1.48815439999998,18,1.82425330333333,7.78764167,SyncTheta
18,12,NaN,NaN,11,1001_4Hz.avi,dar22_zero_4Hz.wav,dar,1,1,1.54986699999972,18,1.82425330333333,7.78764167,SyncTheta
18,13,NaN,NaN,41,1092_4Hz.avi,guitar37_oneeighty_4Hz.wav,guitar,1,0,0.51219089999995,18,1.82425330333333,7.78764167,AsyncTheta
18,14,NaN,NaN,10,1100_4Hz.avi,ep10_zero_4Hz.wav,ep,1,1,0.723758400000406,18,1.82425330333333,7.78764167,SyncTheta
18,15,NaN,NaN,22,1351_4Hz.avi,acoustic1_oneeighty_4Hz.wav,acoustic,1,0,2.05943980000029,18,1.82425330333333,7.78764167,AsyncTheta
18,16,NaN,NaN,16,1285_4Hz.avi,acoustic37_oneeighty_4Hz.wav,acoustic,2,1,1.95690039999954,18,1.82425330333333,7.78764167,AsyncTheta
18,1,NaN,NaN,18,1446_4Hz.avi,synth5_zero_4Hz.wav,synth,2,0,0.629884200000561,18,1.87935071666667,7.78764167,SyncTheta
18,2,NaN,NaN,29,1281_4Hz.avi,ep34_zero_4Hz.wav,ep,1,1,0.503597199999604,18,1.87935071666667,7.78764167,SyncTheta
18,3,NaN,NaN,24,1251_4Hz.avi,willow16_oneeighty_4Hz.wav,willow,2,1,5.49577600000066,18,1.87935071666667,7.78764167,AsyncTheta
18,4,NaN,NaN,36,1307_4Hz.avi,dar13_oneeighty_4Hz.wav,dar,2,1,5.12555429999975,18,1.87935071666667,7.78764167,AsyncTheta
18,5,NaN,NaN,12,1102_4Hz.avi,dar2_oneeighty_4Hz.wav,dar,2,1,1.13353109999935,18,1.87935071666667,7.78764167,AsyncTheta
18,6,NaN,NaN,17,1043_4Hz.avi,ep8_oneeighty_4Hz.wav,ep,2,1,4.21747899999991,18,1.87935071666667,7.78764167,AsyncTheta
18,7,NaN,NaN,34,1409_4Hz.avi,willow12_zero_4Hz.wav,willow,2,0,1.91321640000024,18,1.87935071666667,7.78764167,SyncTheta
18,8,NaN,NaN,13,1075_4Hz.avi,orch19_oneeighty_4Hz.wav,orch,2,1,6.18459679999978,18,1.87935071666667,7.78764167,AsyncTheta
18,9,NaN,NaN,20,1245_4Hz.avi,guitar48_oneeighty_4Hz.wav,guitar,2,1,0.760578899999928,18,1.87935071666667,7.78764167,AsyncTheta
18,10,NaN,NaN,43,1438_4Hz.avi,choir18_oneeighty_4Hz.wav,choir,2,1,1.34313769999972,18,1.87935071666667,7.78764167,AsyncTheta
18,11,NaN,NaN,31,1246_4Hz.avi,guitar47_zero_4Hz.wav,guitar,1,1,1.03233150000051,18,1.87935071666667,7.78764167,SyncTheta
18,12,NaN,NaN,1,1267_4Hz.avi,dar6_zero_4Hz.wav,dar,2,0,5.2986979999996,18,1.87935071666667,7.78764167,SyncTheta
18,13,NaN,NaN,27,1120_4Hz.avi,choir36_zero_4Hz.wav,choir,2,0,4.01327089999995,18,1.87935071666667,7.78764167,SyncTheta
18,14,NaN,NaN,46,1400_4Hz.avi,ep44_zero_4Hz.wav,ep,2,0,1.10164989999976,18,1.87935071666667,7.78764167,SyncTheta
18,15,NaN,NaN,42,1056_4Hz.avi,acoustic12_oneeighty_4Hz.wav,acoustic,2,1,0.740478100000473,18,1.87935071666667,7.78764167,AsyncTheta
18,16,NaN,NaN,3,1194_4Hz.avi,willow13_zero_4Hz.wav,willow,2,0,0.395108499999878,18,1.87935071666667,7.78764167,SyncTheta
19,1,1,NaN,40,1418_4Hz.avi,willow20_zero_4Hz.wav,willow,1,1,2.83355819999997,19,3.94342815333333,7.23928748666667,SyncTheta
19,2,2,NaN,2,1371_4Hz.avi,ep7_oneeighty_4Hz.wav,ep,1,0,2.58876440000131,19,3.94342815333333,7.23928748666667,AsyncTheta
19,3,3,NaN,23,1011_4Hz.avi,orch38_oneeighty_4Hz.wav,orch,1,0,2.50366840000061,19,3.94342815333333,7.23928748666667,AsyncTheta
19,4,NaN,NaN,7,1124_4Hz.avi,dar24_zero_4Hz.wav,dar,1,1,1.51571710000098,19,3.94342815333333,7.23928748666667,SyncTheta
19,5,NaN,NaN,28,1436_4Hz.avi,guitar31_zero_4Hz.wav,guitar,2,0,1.00944650000019,19,3.94342815333333,7.23928748666667,SyncTheta
19,6,NaN,NaN,26,1377_4Hz.avi,acoustic48_oneeighty_4Hz.wav,acoustic,1,0,0.76061110000046,19,3.94342815333333,7.23928748666667,AsyncTheta
19,7,NaN,NaN,44,1257_4Hz.avi,orch14_zero_4Hz.wav,orch,2,0,0.933080700000573,19,3.94342815333333,7.23928748666667,SyncTheta
19,8,NaN,NaN,45,1228_4Hz.avi,orch31_zero_4Hz.wav,orch,2,0,2.65032570000039,19,3.94342815333333,7.23928748666667,SyncTheta
19,9,NaN,NaN,14,1151_4Hz.avi,dar8_zero_4Hz.wav,dar,2,0,0.472313800000848,19,3.94342815333333,7.23928748666667,SyncTheta
19,10,NaN,NaN,32,1326_4Hz.avi,acoustic32_oneeighty_4Hz.wav,acoustic,1,0,1.228947900001,19,3.94342815333333,7.23928748666667,AsyncTheta
19,11,NaN,NaN,6,1226_4Hz.avi,choir4_zero_4Hz.wav,choir,1,1,2.61965430000055,19,3.94342815333333,7.23928748666667,SyncTheta
19,12,NaN,NaN,33,1219_4Hz.avi,acoustic25_oneeighty_4Hz.wav,acoustic,1,0,1.00303449999956,19,3.94342815333333,7.23928748666667,AsyncTheta
19,13,NaN,NaN,25,1402_4Hz.avi,choir38_oneeighty_4Hz.wav,choir,1,0,1.07921519999945,19,3.94342815333333,7.23928748666667,AsyncTheta
19,14,NaN,NaN,8,1376_4Hz.avi,willow15_oneeighty_4Hz.wav,willow,2,1,1.95709059999899,19,3.94342815333333,7.23928748666667,AsyncTheta
19,15,NaN,NaN,9,1424_4Hz.avi,orch1_zero_4Hz.wav,orch,1,1,0.669182899999214,19,3.94342815333333,7.23928748666667,SyncTheta
19,16,NaN,NaN,48,1028_4Hz.avi,acoustic28_oneeighty_4Hz.wav,acoustic,1,0,1.6535014000001,19,3.94342815333333,7.23928748666667,AsyncTheta
19,1,NaN,NaN,37,1235_4Hz.avi,dar23_zero_4Hz.wav,dar,1,1,2.12300429999959,19,1.58420308333333,7.23928748666667,SyncTheta
19,2,NaN,NaN,4,1010_4Hz.avi,ep15_zero_4Hz.wav,ep,1,1,0.583708000000115,19,1.58420308333333,7.23928748666667,SyncTheta
19,3,NaN,NaN,5,1332_4Hz.avi,acoustic44_zero_4Hz.wav,acoustic,1,1,2.99840539999968,19,1.58420308333333,7.23928748666667,SyncTheta
19,4,NaN,NaN,35,1211_4Hz.avi,choir33_oneeighty_4Hz.wav,choir,2,1,0.687941800000772,19,1.58420308333333,7.23928748666667,AsyncTheta
19,5,NaN,NaN,30,1282_4Hz.avi,dar1_oneeighty_4Hz.wav,dar,2,1,0.401074899999003,19,1.58420308333333,7.23928748666667,AsyncTheta
19,6,NaN,NaN,39,1088_4Hz.avi,acoustic47_zero_4Hz.wav,acoustic,2,0,0.332939500000066,19,1.58420308333333,7.23928748666667,SyncTheta
19,7,NaN,NaN,21,1291_4Hz.avi,acoustic11_zero_4Hz.wav,acoustic,2,0,0.523656499999561,19,1.58420308333333,7.23928748666667,SyncTheta
19,8,NaN,NaN,19,1188_4Hz.avi,choir7_zero_4Hz.wav,choir,1,1,0.682894499999747,19,1.58420308333333,7.23928748666667,SyncTheta
19,9,NaN,NaN,47,1261_4Hz.avi,willow10_zero_4Hz.wav,willow,2,0,1.37893290000102,19,1.58420308333333,7.23928748666667,SyncTheta
19,10,NaN,NaN,15,1302_4Hz.avi,synth25_oneeighty_4Hz.wav,synth,2,1,1.58882450000056,19,1.58420308333333,7.23928748666667,AsyncTheta
19,11,NaN,NaN,38,1068_4Hz.avi,orch29_oneeighty_4Hz.wav,orch,1,0,1.59580490000008,19,1.58420308333333,7.23928748666667,AsyncTheta
19,12,NaN,NaN,11,1001_4Hz.avi,dar22_oneeighty_4Hz.wav,dar,2,1,0.992986200000814,19,1.58420308333333,7.23928748666667,AsyncTheta
19,13,NaN,NaN,41,1092_4Hz.avi,guitar37_oneeighty_4Hz.wav,guitar,2,1,1.98481489999904,19,1.58420308333333,7.23928748666667,AsyncTheta
19,14,NaN,NaN,10,1100_4Hz.avi,ep10_zero_4Hz.wav,ep,1,1,0.921405400000367,19,1.58420308333333,7.23928748666667,SyncTheta
19,15,NaN,NaN,22,1351_4Hz.avi,acoustic1_oneeighty_4Hz.wav,acoustic,1,0,0.322871500000474,19,1.58420308333333,7.23928748666667,AsyncTheta
19,16,NaN,NaN,16,1285_4Hz.avi,acoustic37_oneeighty_4Hz.wav,acoustic,1,0,1.29390450000028,19,1.58420308333333,7.23928748666667,AsyncTheta
19,1,NaN,NaN,18,1446_4Hz.avi,synth5_oneeighty_4Hz.wav,synth,1,0,0.542775899999469,19,1.51047265,7.23928748666667,AsyncTheta
19,2,NaN,NaN,29,1281_4Hz.avi,ep34_zero_4Hz.wav,ep,2,0,1.13248919999933,19,1.51047265,7.23928748666667,SyncTheta
19,3,NaN,NaN,24,1251_4Hz.avi,willow16_zero_4Hz.wav,willow,1,1,1.87397609999971,19,1.51047265,7.23928748666667,SyncTheta
19,4,NaN,NaN,36,1307_4Hz.avi,dar13_oneeighty_4Hz.wav,dar,1,0,0.989033299998482,19,1.51047265,7.23928748666667,AsyncTheta
19,5,NaN,NaN,12,1102_4Hz.avi,dar2_zero_4Hz.wav,dar,2,0,0.972340399999666,19,1.51047265,7.23928748666667,SyncTheta
19,6,NaN,NaN,17,1043_4Hz.avi,ep8_oneeighty_4Hz.wav,ep,2,1,0.392852499999208,19,1.51047265,7.23928748666667,AsyncTheta
19,7,NaN,NaN,34,1409_4Hz.avi,willow12_oneeighty_4Hz.wav,willow,2,1,0.69482059999973,19,1.51047265,7.23928748666667,AsyncTheta
19,8,NaN,NaN,13,1075_4Hz.avi,orch19_zero_4Hz.wav,orch,1,1,0.567495999999664,19,1.51047265,7.23928748666667,SyncTheta
19,9,NaN,NaN,20,1245_4Hz.avi,guitar48_oneeighty_4Hz.wav,guitar,1,0,0.483434600000692,19,1.51047265,7.23928748666667,AsyncTheta
19,10,NaN,NaN,43,1438_4Hz.avi,choir18_zero_4Hz.wav,choir,2,0,3.51085980000062,19,1.51047265,7.23928748666667,SyncTheta
19,11,NaN,NaN,31,1246_4Hz.avi,guitar47_zero_4Hz.wav,guitar,2,0,0.567782799998895,19,1.51047265,7.23928748666667,SyncTheta
19,12,NaN,NaN,1,1267_4Hz.avi,dar6_zero_4Hz.wav,dar,1,1,1.49926220000089,19,1.51047265,7.23928748666667,SyncTheta
19,13,NaN,NaN,27,1120_4Hz.avi,choir36_oneeighty_4Hz.wav,choir,1,0,0.375138499999593,19,1.51047265,7.23928748666667,AsyncTheta
19,14,NaN,NaN,46,1400_4Hz.avi,ep44_oneeighty_4Hz.wav,ep,2,1,1.86657739999828,19,1.51047265,7.23928748666667,AsyncTheta
19,15,NaN,NaN,42,1056_4Hz.avi,acoustic12_oneeighty_4Hz.wav,acoustic,1,0,0.680965499999729,19,1.51047265,7.23928748666667,AsyncTheta
19,16,NaN,NaN,3,1194_4Hz.avi,willow13_zero_4Hz.wav,willow,2,0,1.24901779999891,19,1.51047265,7.23928748666667,SyncTheta
20,1,1,NaN,40,1418_4Hz.avi,willow20_zero_4Hz.wav,willow,2,0,4.80397780000021,20,2.05179055,5.049571205,SyncTheta
20,2,2,NaN,2,1371_4Hz.avi,ep7_zero_4Hz.wav,ep,2,0,1.10768619999999,20,2.05179055,5.049571205,SyncTheta
20,3,3,NaN,23,1011_4Hz.avi,orch38_zero_4Hz.wav,orch,1,1,3.33725490000006,20,2.05179055,5.049571205,SyncTheta
20,4,NaN,NaN,7,1124_4Hz.avi,dar24_oneeighty_4Hz.wav,dar,2,1,0.598590599999625,20,2.05179055,5.049571205,AsyncTheta
20,5,NaN,NaN,28,1436_4Hz.avi,guitar31_zero_4Hz.wav,guitar,1,1,0.835732000000007,20,2.05179055,5.049571205,SyncTheta
20,6,NaN,NaN,26,1377_4Hz.avi,acoustic48_oneeighty_4Hz.wav,acoustic,1,0,1.16963399999986,20,2.05179055,5.049571205,AsyncTheta
20,7,NaN,NaN,44,1257_4Hz.avi,orch14_oneeighty_4Hz.wav,orch,1,0,0.624941700000363,20,2.05179055,5.049571205,AsyncTheta
20,8,NaN,NaN,45,1228_4Hz.avi,orch31_oneeighty_4Hz.wav,orch,1,0,1.18505520000008,20,2.05179055,5.049571205,AsyncTheta
20,9,NaN,NaN,14,1151_4Hz.avi,dar8_zero_4Hz.wav,dar,2,0,3.20537689999992,20,2.05179055,5.049571205,SyncTheta
20,10,NaN,NaN,32,1326_4Hz.avi,acoustic32_zero_4Hz.wav,acoustic,2,0,0.27646360000017,20,2.05179055,5.049571205,SyncTheta
20,11,NaN,NaN,6,1226_4Hz.avi,choir4_oneeighty_4Hz.wav,choir,1,0,0.355575300000055,20,2.05179055,5.049571205,AsyncTheta
20,12,NaN,NaN,33,1219_4Hz.avi,acoustic25_zero_4Hz.wav,acoustic,1,1,0.23338750000039,20,2.05179055,5.049571205,SyncTheta
20,13,NaN,NaN,25,1402_4Hz.avi,choir38_zero_4Hz.wav,choir,1,1,0.918901600000027,20,2.05179055,5.049571205,SyncTheta
20,14,NaN,NaN,8,1376_4Hz.avi,willow15_oneeighty_4Hz.wav,willow,1,0,0.719426900000144,20,2.05179055,5.049571205,AsyncTheta
20,15,NaN,NaN,9,1424_4Hz.avi,orch1_oneeighty_4Hz.wav,orch,1,0,0.644689199999902,20,2.05179055,5.049571205,AsyncTheta
20,16,NaN,NaN,48,1028_4Hz.avi,acoustic28_oneeighty_4Hz.wav,acoustic,1,0,0.929521900000054,20,2.05179055,5.049571205,AsyncTheta
20,1,NaN,NaN,37,1235_4Hz.avi,dar23_oneeighty_4Hz.wav,dar,2,1,0.232186100000035,20,1.38374073333333,5.049571205,AsyncTheta
20,2,NaN,NaN,4,1010_4Hz.avi,ep15_zero_4Hz.wav,ep,1,1,0.770526199999949,20,1.38374073333333,5.049571205,SyncTheta
20,3,NaN,NaN,5,1332_4Hz.avi,acoustic44_oneeighty_4Hz.wav,acoustic,1,0,0.61580129999993,20,1.38374073333333,5.049571205,AsyncTheta
20,4,NaN,NaN,35,1211_4Hz.avi,choir33_zero_4Hz.wav,choir,1,1,0.602596900000208,20,1.38374073333333,5.049571205,SyncTheta
20,5,NaN,NaN,30,1282_4Hz.avi,dar1_oneeighty_4Hz.wav,dar,1,0,0.184090499999911,20,1.38374073333333,5.049571205,AsyncTheta
20,6,NaN,NaN,39,1088_4Hz.avi,acoustic47_oneeighty_4Hz.wav,acoustic,2,1,0.345406599999933,20,1.38374073333333,5.049571205,AsyncTheta
20,7,NaN,NaN,21,1291_4Hz.avi,acoustic11_oneeighty_4Hz.wav,acoustic,2,1,0.287001700000019,20,1.38374073333333,5.049571205,AsyncTheta
20,8,NaN,NaN,19,1188_4Hz.avi,choir7_zero_4Hz.wav,choir,1,1,2.08613409999998,20,1.38374073333333,5.049571205,SyncTheta
20,9,NaN,NaN,47,1261_4Hz.avi,willow10_zero_4Hz.wav,willow,2,0,0.230674400000225,20,1.38374073333333,5.049571205,SyncTheta
20,10,NaN,NaN,15,1302_4Hz.avi,synth25_oneeighty_4Hz.wav,synth,1,0,1.08149479999975,20,1.38374073333333,5.049571205,AsyncTheta
20,11,NaN,NaN,38,1068_4Hz.avi,orch29_oneeighty_4Hz.wav,orch,1,0,0.272989500000222,20,1.38374073333333,5.049571205,AsyncTheta
20,12,NaN,NaN,11,1001_4Hz.avi,dar22_zero_4Hz.wav,dar,2,0,0.852637099999811,20,1.38374073333333,5.049571205,SyncTheta
20,13,NaN,NaN,41,1092_4Hz.avi,guitar37_zero_4Hz.wav,guitar,2,0,0.244984399999339,20,1.38374073333333,5.049571205,SyncTheta
20,14,NaN,NaN,10,1100_4Hz.avi,ep10_zero_4Hz.wav,ep,1,1,0.250200200000108,20,1.38374073333333,5.049571205,SyncTheta
20,15,NaN,NaN,22,1351_4Hz.avi,acoustic1_oneeighty_4Hz.wav,acoustic,1,0,0.42145359999995,20,1.38374073333333,5.049571205,AsyncTheta
20,16,NaN,NaN,16,1285_4Hz.avi,acoustic37_zero_4Hz.wav,acoustic,2,0,0.718651600000157,20,1.38374073333333,5.049571205,SyncTheta
20,1,NaN,NaN,18,1446_4Hz.avi,synth5_oneeighty_4Hz.wav,synth,2,1,0.255195899999308,20,1.361083255,5.049571205,AsyncTheta
20,2,NaN,NaN,29,1281_4Hz.avi,ep34_oneeighty_4Hz.wav,ep,2,1,1.79628070000035,20,1.361083255,5.049571205,AsyncTheta
20,3,NaN,NaN,24,1251_4Hz.avi,willow16_zero_4Hz.wav,willow,1,1,0.26535530000001,20,1.361083255,5.049571205,SyncTheta
20,4,NaN,NaN,36,1307_4Hz.avi,dar13_zero_4Hz.wav,dar,1,1,0.314825600000404,20,1.361083255,5.049571205,SyncTheta
20,5,NaN,NaN,12,1102_4Hz.avi,dar2_oneeighty_4Hz.wav,dar,2,1,0.206490599999597,20,1.361083255,5.049571205,AsyncTheta
20,6,NaN,NaN,17,1043_4Hz.avi,ep8_zero_4Hz.wav,ep,1,1,0.324164100000417,20,1.361083255,5.049571205,SyncTheta
20,7,NaN,NaN,34,1409_4Hz.avi,willow12_oneeighty_4Hz.wav,willow,1,0,0.756081700000323,20,1.361083255,5.049571205,AsyncTheta
20,8,NaN,NaN,13,1075_4Hz.avi,orch19_zero_4Hz.wav,orch,1,1,0.419077600000492,20,1.361083255,5.049571205,SyncTheta
20,9,NaN,NaN,20,1245_4Hz.avi,guitar48_oneeighty_4Hz.wav,guitar,2,1,0.364977799999906,20,1.361083255,5.049571205,AsyncTheta
20,10,NaN,NaN,43,1438_4Hz.avi,choir18_zero_4Hz.wav,choir,2,0,0.21411210000042,20,1.361083255,5.049571205,SyncTheta
20,11,NaN,NaN,31,1246_4Hz.avi,guitar47_oneeighty_4Hz.wav,guitar,2,1,0.325198300000011,20,1.361083255,5.049571205,AsyncTheta
20,12,NaN,NaN,1,1267_4Hz.avi,dar6_oneeighty_4Hz.wav,dar,1,0,0.935013400000571,20,1.361083255,5.049571205,AsyncTheta
20,13,NaN,NaN,27,1120_4Hz.avi,choir36_oneeighty_4Hz.wav,choir,1,0,0.316328299999441,20,1.361083255,5.049571205,AsyncTheta
20,14,NaN,NaN,46,1400_4Hz.avi,ep44_zero_4Hz.wav,ep,2,0,0.667811600000277,20,1.361083255,5.049571205,SyncTheta
20,15,NaN,NaN,42,1056_4Hz.avi,acoustic12_zero_4Hz.wav,acoustic,2,0,1.08863120000024,20,1.361083255,5.049571205,SyncTheta
