ParticipantID,TrialNumber,BlockNumber,Condition,ClipID,VideoFile,SoundFile,SoundCategory,Response,RT,Accuracy,ConditionID,Frame1,Frame2,Frame3,Frame4,CorrectKey,EncodingPosition,Rating,BlockDuration,ExperimentDuration,MemoryTestOnset
12,1,1,AsyncTheta,185,1131_4Hz.avi,guitar45_oneeighty_4Hz.wav,guitar,4,6.53411790000064,1,12,112,59,67,185,4,7,1,5.58820587666667,64.2719261,10812.8216977
12,2,1,AsyncTheta,127,1411_4Hz.avi,synth28_oneeighty_4Hz.wav,synth,1,5.95165629999974,1,12,127,71,155,8,1,9,1,5.58820587666667,64.2719261,10822.7634014
12,3,1,AsyncTheta,155,1042_4Hz.avi,synth10_oneeighty_4Hz.wav,synth,1,6.05050069999925,1,12,155,71,8,127,1,1,1,5.58820587666667,64.2719261,10830.5380115
12,4,1,AsyncTheta,176,1405_4Hz.avi,ep46_oneeighty_4Hz.wav,ep,1,4.56110759999865,1,12,176,41,87,150,1,6,1,5.58820587666667,64.2719261,10838.7293788
12,5,1,AsyncTheta,112,1388_4Hz.avi,guitar39_oneeighty_4Hz.wav,guitar,4,5.52166190000025,1,12,185,59,67,112,4,8,3,5.58820587666667,64.2719261,10845.0043219
12,6,1,AsyncTheta,150,1394_4Hz.avi,ep11_oneeighty_4Hz.wav,ep,4,6.48811380000006,0,12,150,176,41,87,1,3,1,5.58820587666667,64.2719261,10853.1622774
12,7,1,SyncTheta,8,1252_4Hz.avi,synth25_zero_4Hz.wav,synth,1,3.71548239999902,1,12,8,127,155,71,1,5,4,5.58820587666667,64.2719261,10862.6371111
12,8,1,SyncTheta,32,1360_4Hz.avi,willow10_zero_4Hz.wav,willow,4,4.94584349999968,0,12,32,152,171,37,1,12,1,5.58820587666667,64.2719261,10868.3621945
12,9,1,SyncTheta,87,1142_4Hz.avi,ep3_zero_4Hz.wav,ep,4,5.62012329999925,0,12,176,150,87,41,3,16,2,5.58820587666667,64.2719261,10876.6450464
12,10,1,AsyncTheta,152,1445_4Hz.avi,willow2_oneeighty_4Hz.wav,willow,3,7.91740930000014,1,12,32,171,152,37,3,11,4,5.58820587666667,64.2719261,10885.0950882
12,11,1,SyncTheta,67,1310_4Hz.avi,guitar21_zero_4Hz.wav,guitar,1,5.23322689999986,0,12,59,67,185,112,2,15,3,5.58820587666667,64.2719261,10896.2028276
12,12,1,SyncTheta,71,1076_4Hz.avi,synth21_zero_4Hz.wav,synth,4,3.64731650000067,0,12,8,155,71,127,3,10,3,5.58820587666667,64.2719261,10903.160972
12,13,1,SyncTheta,41,1132_4Hz.avi,ep10_zero_4Hz.wav,ep,2,8.90233780000017,0,12,150,87,41,176,3,4,3,5.58820587666667,64.2719261,10910.1774116
12,14,1,SyncTheta,59,1346_4Hz.avi,guitar33_zero_4Hz.wav,guitar,1,4.70319860000018,0,12,67,59,112,185,2,13,2,5.58820587666667,64.2719261,10921.0688866
12,15,1,AsyncTheta,171,1280_4Hz.avi,willow19_oneeighty_4Hz.wav,willow,1,7.00972130000082,1,12,171,152,32,37,1,14,1,5.58820587666667,64.2719261,10928.9437422
12,16,1,SyncTheta,37,1237_4Hz.avi,willow15_zero_4Hz.wav,willow,4,3.0152595999989,1,12,152,171,32,37,4,2,2,5.58820587666667,64.2719261,10937.8016869
12,1,2,NoFlickerHalf,52,1387_half_length.avi,choir2_half_length.wav,choir,2,3.65723670000079,1,12,121,52,63,97,2,10,1,4.47118364,64.2719261,11091.7063255
12,2,2,NoFlickerHalf,64,1098_half_length.avi,dar11_half_length.wav,dar,2,9.97447720000127,0,12,114,147,64,40,3,5,3,4.47118364,64.2719261,11097.3976479
12,3,2,NoFlickerHalf,40,1239_half_length.avi,dar6_half_length.wav,dar,4,2.83800700000029,1,12,114,64,147,40,4,1,1,4.47118364,64.2719261,11110.4139182
12,4,2,NoFlickerFull,79,1071_half_amp.avi,acoustic17_half_amp.wav,acoustic,2,3.73281159999897,1,12,105,79,20,5,2,12,4,4.47118364,64.2719261,11116.2473274
12,5,2,NoFlickerFull,97,1368_half_amp.avi,choir30_half_amp.wav,choir,3,4.91047529999923,1,12,63,52,97,121,3,11,5,4.47118364,64.2719261,11123.1721429
12,6,2,NoFlickerHalf,5,1381_half_length.avi,acoustic1_half_length.wav,acoustic,3,4.41996570000083,0,12,105,5,20,79,2,4,4,4.47118364,64.2719261,11131.4133587
12,7,2,NoFlickerFull,147,1304_half_amp.avi,dar10_half_amp.wav,dar,1,3.57182769999963,1,12,147,114,64,40,1,3,3,4.47118364,64.2719261,11137.4048668
12,8,2,NoFlickerHalf,102,1012_half_length.avi,orch18_half_length.wav,orch,2,6.15577500000109,1,12,28,102,158,188,2,8,5,4.47118364,64.2719261,11143.4632871
12,9,2,NoFlickerFull,105,1003_half_amp.avi,acoustic6_half_amp.wav,acoustic,3,6.23562179999863,0,12,20,79,5,105,4,13,2,4.47118364,64.2719261,11153.0378125
12,10,2,NoFlickerFull,188,1036_half_amp.avi,orch26_half_amp.wav,orch,2,3.81461370000034,1,12,28,188,158,102,2,6,5,4.47118364,64.2719261,11162.3459289
12,11,2,NoFlickerFull,121,1354_half_amp.avi,choir22_half_amp.wav,choir,3,4.04913390000002,0,12,52,121,63,97,2,16,1,4.47118364,64.2719261,11168.9542915
12,12,2,NoFlickerFull,114,1322_half_amp.avi,dar14_half_amp.wav,dar,1,8.65311879999899,0,12,64,147,40,114,4,7,5,4.47118364,64.2719261,11175.2289951
12,13,2,NoFlickerHalf,20,1236_half_length.avi,acoustic25_half_length.wav,acoustic,1,2.94345740000063,0,12,5,79,105,20,4,9,5,4.47118364,64.2719261,11185.6955195
12,14,2,NoFlickerHalf,63,1128_half_length.avi,choir26_half_length.wav,choir,2,5.68259230000149,0,12,63,121,52,97,1,14,1,4.47118364,64.2719261,11190.2538094
12,15,2,NoFlickerFull,158,1206_half_amp.avi,orch6_half_amp.wav,orch,2,3.95119300000079,1,12,28,158,102,188,2,15,1,4.47118364,64.2719261,11198.6035215
12,16,2,NoFlickerHalf,28,1148_half_length.avi,orch19_half_length.wav,orch,1,4.56194750000031,1,12,28,188,102,158,1,2,2,4.47118364,64.2719261,11204.7281401
12,1,3,NoFlickerFull,76,1293_half_amp.avi,choir23_half_amp.wav,choir,2,3.69110069999988,1,12,88,76,10,11,2,1,1,4.01539787666667,64.2719261,11355.1492219
12,2,3,NoFlickerFull,162,1358_half_amp.avi,dar7_half_amp.wav,dar,2,3.91601769999943,1,12,82,162,29,49,2,15,4,4.01539787666667,64.2719261,11361.0492887
12,3,3,NoFlickerFull,82,1449_half_amp.avi,dar17_half_amp.wav,dar,1,3.56962270000076,1,12,82,162,29,49,1,12,3,4.01539787666667,64.2719261,11367.2491301
12,4,3,NoFlickerFull,104,1111_half_amp.avi,acoustic31_half_amp.wav,acoustic,2,4.03388930000074,1,12,1,104,58,83,2,6,5,4.01539787666667,64.2719261,11372.8820337
12,5,3,NoFlickerFull,88,1191_half_amp.avi,choir20_half_amp.wav,choir,1,4.48627059999853,1,12,88,76,11,10,1,7,2,4.01539787666667,64.2719261,11378.8404879
12,6,3,NoFlickerFull,83,1139_half_amp.avi,acoustic27_half_amp.wav,acoustic,3,5.85213079999994,1,12,58,104,83,1,3,4,4,4.01539787666667,64.2719261,11386.6153468
12,7,3,NoFlickerHalf,49,1221_half_length.avi,dar21_half_length.wav,dar,3,3.17053310000119,0,12,82,49,29,162,2,14,1,4.01539787666667,64.2719261,11394.9399767
12,8,3,NoFlickerHalf,42,1339_half_length.avi,orch31_half_length.wav,orch,4,2.35296419999941,1,12,57,134,137,42,4,8,1,4.01539787666667,64.2719261,11400.1148592
12,9,3,NoFlickerHalf,58,1323_half_length.avi,acoustic29_half_length.wav,acoustic,1,3.28408669999953,1,12,58,1,104,83,1,13,3,4.01539787666667,64.2719261,11404.5562525
12,10,3,NoFlickerFull,137,1303_half_amp.avi,orch10_half_amp.wav,orch,3,4.30178889999843,0,12,137,42,134,57,1,3,4,4.01539787666667,64.2719261,11409.7730193
12,11,3,NoFlickerHalf,11,1448_half_length.avi,choir36_half_length.wav,choir,4,4.56488700000045,1,12,76,88,10,11,4,11,3,4.01539787666667,64.2719261,11415.5895497
12,12,3,NoFlickerHalf,29,1158_half_length.avi,dar23_half_length.wav,dar,2,5.99590100000023,0,12,162,49,29,82,3,16,5,4.01539787666667,64.2719261,11422.7724277
12,13,3,NoFlickerHalf,1,1064_half_length.avi,acoustic12_half_length.wav,acoustic,4,2.61738820000028,0,12,83,1,58,104,2,5,5,4.01539787666667,64.2719261,11430.8388998
12,14,3,NoFlickerHalf,10,1179_half_length.avi,choir4_half_length.wav,choir,4,3.0682968000001,1,12,88,76,11,10,4,10,2,4.01539787666667,64.2719261,11435.9638333
12,15,3,NoFlickerFull,134,1026_half_amp.avi,orch16_half_amp.wav,orch,4,3.30741039999884,0,12,57,134,42,137,2,9,1,4.01539787666667,64.2719261,11440.6303499
12,16,3,NoFlickerHalf,57,1309_half_length.avi,orch7_half_length.wav,orch,1,3.38779079999949,1,12,57,137,42,134,1,2,5,4.01539787666667,64.2719261,11447.0220395
12,1,4,SyncTheta,46,1210_4Hz.avi,guitar48_zero_4Hz.wav,guitar,4,4.78224520000003,1,12,151,183,77,46,4,3,1,4.71022756166667,64.2719261,11613.3008097
12,2,4,SyncTheta,100,1107_4Hz.avi,synth23_zero_4Hz.wav,synth,1,3.4530747000008,1,12,100,184,95,129,1,11,1,4.71022756166667,64.2719261,11621.1758239
12,3,4,AsyncTheta,184,1052_4Hz.avi,synth40_oneeighty_4Hz.wav,synth,2,4.29575040000054,1,12,100,184,129,95,2,1,1,4.71022756166667,64.2719261,11627.9087668
12,4,4,SyncTheta,16,1442_4Hz.avi,ep34_zero_4Hz.wav,ep,3,4.06716199999937,0,12,24,16,177,144,2,7,2,4.71022756166667,64.2719261,11634.0753846
12,5,4,AsyncTheta,151,1259_4Hz.avi,guitar43_oneeighty_4Hz.wav,guitar,4,4.10578549999991,0,12,46,77,151,183,3,5,3,4.71022756166667,64.2719261,11640.8418242
12,6,4,AsyncTheta,177,1283_4Hz.avi,ep38_oneeighty_4Hz.wav,ep,2,3.66956349999964,0,12,16,24,144,177,4,2,2,4.71022756166667,64.2719261,11647.9832477
12,7,4,SyncTheta,95,1359_4Hz.avi,synth33_zero_4Hz.wav,synth,4,1.91340579999996,1,12,184,129,100,95,4,10,1,4.71022756166667,64.2719261,11654.5581717
12,8,4,SyncTheta,66,1215_4Hz.avi,willow18_zero_4Hz.wav,willow,3,4.65299889999915,1,12,118,167,66,27,3,14,3,4.71022756166667,64.2719261,11659.8912595
12,9,4,AsyncTheta,144,1255_4Hz.avi,ep28_oneeighty_4Hz.wav,ep,4,3.63444340000024,1,12,177,16,24,144,4,9,1,4.71022756166667,64.2719261,11667.5163022
12,10,4,AsyncTheta,118,1020_4Hz.avi,willow22_oneeighty_4Hz.wav,willow,1,11.9621089000011,0,12,66,118,27,167,2,12,1,4.71022756166667,64.2719261,11674.6242087
12,11,4,SyncTheta,77,1008_4Hz.avi,guitar42_zero_4Hz.wav,guitar,4,4.70052659999965,0,12,77,46,151,183,1,16,3,4.71022756166667,64.2719261,11690.2073696
12,12,4,AsyncTheta,129,1286_4Hz.avi,synth30_oneeighty_4Hz.wav,synth,1,3.63245320000169,1,12,129,95,100,184,1,13,3,4.71022756166667,64.2719261,11697.3238639
12,13,4,SyncTheta,24,1217_4Hz.avi,ep44_zero_4Hz.wav,ep,4,3.37025069999981,0,12,144,24,177,16,2,6,4,4.71022756166667,64.2719261,11704.3484992
12,14,4,AsyncTheta,183,1374_4Hz.avi,guitar16_oneeighty_4Hz.wav,guitar,3,9.99607449999894,0,12,183,46,151,77,1,8,1,4.71022756166667,64.2719261,11711.1734228
12,15,4,AsyncTheta,167,1177_4Hz.avi,willow24_oneeighty_4Hz.wav,willow,4,4.09464370000023,0,12,118,167,27,66,2,15,2,4.71022756166667,64.2719261,11722.8732098
12,16,4,SyncTheta,27,1202_4Hz.avi,willow16_zero_4Hz.wav,willow,3,2.96138719999908,1,12,167,66,27,118,3,4,1,4.71022756166667,64.2719261,11730.2559937
12,1,5,SyncTheta,7,1017_4Hz.avi,guitar47_zero_4Hz.wav,guitar,4,5.71244939999997,0,12,73,7,168,172,2,6,1,4.90776557333333,64.2719261,11919.0928574
12,2,5,SyncTheta,50,1049_4Hz.avi,synth43_zero_4Hz.wav,synth,4,2.71937219999927,1,12,140,163,89,50,4,13,1,4.90776557333333,64.2719261,11927.184573
12,3,5,AsyncTheta,163,1441_4Hz.avi,synth27_oneeighty_4Hz.wav,synth,1,1.71616679999897,1,12,163,140,50,89,1,10,1,4.90776557333333,64.2719261,11932.1010779
12,4,5,SyncTheta,99,1173_4Hz.avi,ep6_zero_4Hz.wav,ep,1,7.2131358000006,1,12,99,26,138,173,1,8,3,4.90776557333333,64.2719261,11936.5093048
12,5,5,AsyncTheta,168,1204_4Hz.avi,guitar36_oneeighty_4Hz.wav,guitar,2,3.34582829999999,0,12,73,7,172,168,4,11,3,4.90776557333333,64.2719261,11946.3338143
12,6,5,SyncTheta,26,1190_4Hz.avi,ep7_zero_4Hz.wav,ep,1,3.23268980000103,0,12,173,138,99,26,4,2,3,4.90776557333333,64.2719261,11952.92528
12,7,5,SyncTheta,89,1393_4Hz.avi,synth41_zero_4Hz.wav,synth,3,3.13927879999937,1,12,50,140,89,163,3,12,1,4.90776557333333,64.2719261,11958.1670722
12,8,5,AsyncTheta,130,1081_4Hz.avi,willow5_oneeighty_4Hz.wav,willow,1,5.85319369999888,1,12,130,48,120,108,1,5,1,4.90776557333333,64.2719261,11963.1502813
12,9,5,AsyncTheta,138,1149_4Hz.avi,ep2_oneeighty_4Hz.wav,ep,1,8.58482200000071,0,12,99,138,173,26,2,9,2,4.90776557333333,64.2719261,11972.2164617
12,10,5,SyncTheta,48,1021_4Hz.avi,willow12_zero_4Hz.wav,willow,3,2.38488570000118,0,12,48,120,108,130,1,4,2,4.90776557333333,64.2719261,11982.3997716
12,11,5,SyncTheta,73,1369_4Hz.avi,guitar19_zero_4Hz.wav,guitar,3,6.05112139999983,0,12,172,7,168,73,4,16,1,4.90776557333333,64.2719261,11987.5911789
12,12,5,AsyncTheta,140,1270_4Hz.avi,synth17_oneeighty_4Hz.wav,synth,1,2.81196719999934,1,12,140,89,163,50,1,14,2,4.90776557333333,64.2719261,11996.1494027
12,13,5,AsyncTheta,173,1348_4Hz.avi,ep31_oneeighty_4Hz.wav,ep,4,4.73165340000014,1,12,26,138,99,173,4,3,2,4.90776557333333,64.2719261,12002.0157616
12,14,5,AsyncTheta,172,1350_4Hz.avi,guitar10_oneeighty_4Hz.wav,guitar,3,6.31960880000042,1,12,7,73,172,168,3,15,3,4.90776557333333,64.2719261,12009.7321533
12,15,5,SyncTheta,108,1415_4Hz.avi,willow3_zero_4Hz.wav,willow,2,4.13421910000034,0,12,108,120,48,130,1,7,1,4.90776557333333,64.2719261,12018.7404863
12,16,5,AsyncTheta,120,1365_4Hz.avi,willow21_oneeighty_4Hz.wav,willow,2,3.21354550000069,0,12,120,48,130,108,1,1,4,4.90776557333333,64.2719261,12024.6567525
12,1,6,NoFlickerFull,78,1301_half_amp.avi,choir11_half_amp.wav,choir,1,5.10169560000031,0,12,159,69,78,68,3,4,4,4.918842345,64.2719261,12194.8692282
12,2,6,NoFlickerHalf,34,1319_half_length.avi,dar22_half_length.wav,dar,4,3.36264560000018,0,12,191,14,34,122,3,12,4,4.918842345,64.2719261,12202.644056
12,3,6,NoFlickerHalf,14,1416_half_length.avi,dar1_half_length.wav,dar,3,4.56731190000028,0,12,191,14,34,122,2,8,2,4.918842345,64.2719261,12209.0686075
12,4,6,NoFlickerHalf,21,1112_half_length.avi,acoustic32_half_length.wav,acoustic,3,10.7618261000007,1,12,44,148,21,190,3,10,2,4.918842345,64.2719261,12216.5936671
12,5,6,NoFlickerFull,159,1091_half_amp.avi,choir8_half_amp.wav,choir,2,5.56934000000001,0,12,159,78,69,68,1,5,1,4.918842345,64.2719261,12230.5933034
12,6,6,NoFlickerFull,148,1121_half_amp.avi,acoustic26_half_amp.wav,acoustic,4,4.8056489999999,1,12,190,21,44,148,4,1,4,4.918842345,64.2719261,12238.0097831
12,7,6,NoFlickerFull,191,1314_half_amp.avi,dar19_half_amp.wav,dar,2,8.23448739999913,0,12,14,34,122,191,4,9,3,4.918842345,64.2719261,12244.8010231
12,8,6,NoFlickerHalf,30,1016_half_length.avi,orch14_half_length.wav,orch,1,4.61761440000009,0,12,142,141,30,36,3,6,1,4.918842345,64.2719261,12255.575843
12,9,6,NoFlickerFull,190,1427_half_amp.avi,acoustic46_half_amp.wav,acoustic,4,8.95710920000056,0,12,190,148,44,21,1,15,2,4.918842345,64.2719261,12262.5339073
12,10,6,NoFlickerFull,141,1401_half_amp.avi,orch12_half_amp.wav,orch,2,3.71321659999921,0,12,141,30,36,142,1,3,3,4.918842345,64.2719261,12273.4587111
12,11,6,NoFlickerHalf,69,1216_half_length.avi,choir32_half_length.wav,choir,2,6.60114629999953,1,12,159,69,68,78,2,16,2,4.918842345,64.2719261,12279.3917575
12,12,6,NoFlickerFull,122,1289_half_amp.avi,dar3_half_amp.wav,dar,1,4.37498979999873,0,12,14,34,191,122,4,14,5,4.918842345,64.2719261,12289.1748862
12,13,6,NoFlickerHalf,44,1254_half_length.avi,acoustic48_half_length.wav,acoustic,3,5.48146740000084,1,12,190,148,44,21,3,7,1,4.918842345,64.2719261,12296.6163698
12,14,6,NoFlickerHalf,68,1023_half_length.avi,choir3_half_length.wav,choir,3,2.63835139999901,1,12,159,69,68,78,3,11,1,4.918842345,64.2719261,12305.2330062
12,15,6,NoFlickerFull,142,1155_half_amp.avi,orch9_half_amp.wav,orch,2,4.59598600000027,1,12,30,142,36,141,2,13,5,4.918842345,64.2719261,12311.1745092
12,16,6,NoFlickerHalf,36,1284_half_length.avi,orch29_half_length.wav,orch,3,5.61027689999901,0,12,142,36,30,141,2,2,1,4.918842345,64.2719261,12317.6158708
12,1,7,NoFlickerHalf,19,1247_half_length.avi,choir38_half_length.wav,choir,1,3.97587120000026,1,12,19,181,139,38,1,2,4,4.77591807666667,64.2719261,12494.5695985
12,2,7,NoFlickerFull,187,1164_half_amp.avi,dar12_half_amp.wav,dar,2,4.48556239999925,0,12,56,31,103,187,4,13,2,4.77591807666667,64.2719261,12501.7110367
12,3,7,NoFlickerHalf,31,1404_half_length.avi,dar8_half_length.wav,dar,4,3.82073190000119,1,12,103,56,187,31,4,9,1,4.77591807666667,64.2719261,12509.2524576
12,4,7,NoFlickerFull,175,1103_half_amp.avi,acoustic10_half_amp.wav,acoustic,3,7.40906330000143,0,12,133,175,23,47,2,10,3,4.77591807666667,64.2719261,12516.3605469
12,5,7,NoFlickerFull,181,1168_half_amp.avi,choir1_half_amp.wav,choir,4,3.04808009999942,1,12,19,139,38,181,4,3,5,4.77591807666667,64.2719261,12525.368688
12,6,7,NoFlickerHalf,47,1292_half_length.avi,acoustic28_half_length.wav,acoustic,1,6.37788339999861,0,12,133,47,23,175,2,5,4,4.77591807666667,64.2719261,12530.8851372
12,7,7,NoFlickerHalf,56,1063_half_length.avi,dar16_half_length.wav,dar,3,3.89853169999878,0,12,56,31,187,103,1,12,1,4.77591807666667,64.2719261,12540.110172
12,8,7,NoFlickerFull,145,1352_half_amp.avi,orch39_half_amp.wav,orch,4,3.13092539999889,0,12,145,33,165,17,1,8,5,4.77591807666667,64.2719261,12546.2764007
12,9,7,NoFlickerFull,133,1341_half_amp.avi,acoustic14_half_amp.wav,acoustic,4,3.54010610000114,0,12,23,47,133,175,3,11,4,4.77591807666667,64.2719261,12552.7512636
12,10,7,NoFlickerFull,165,1410_half_amp.avi,orch43_half_amp.wav,orch,3,9.33292240000083,0,12,165,17,33,145,1,4,3,4.77591807666667,64.2719261,12559.3177695
12,11,7,NoFlickerFull,139,1192_half_amp.avi,choir5_half_amp.wav,choir,4,2.56594960000075,0,12,19,38,139,181,3,15,1,4.77591807666667,64.2719261,12570.4427165
12,12,7,NoFlickerFull,103,1084_half_amp.avi,dar20_half_amp.wav,dar,2,4.40537789999871,0,12,103,56,31,187,1,16,2,4.77591807666667,64.2719261,12575.4006604
12,13,7,NoFlickerHalf,23,1330_half_length.avi,acoustic47_half_length.wav,acoustic,4,2.75031129999843,0,12,47,133,23,175,3,6,1,4.77591807666667,64.2719261,12583.0172727
12,14,7,NoFlickerHalf,38,1184_half_length.avi,choir33_half_length.wav,choir,2,5.67623239999921,1,12,139,38,19,181,2,7,2,4.77591807666667,64.2719261,12587.7839189
12,15,7,NoFlickerHalf,17,1162_half_length.avi,orch1_half_length.wav,orch,1,7.85491849999926,0,12,165,145,33,17,4,14,4,4.77591807666667,64.2719261,12596.8086887
12,16,7,NoFlickerHalf,33,1136_half_length.avi,orch38_half_length.wav,orch,2,3.01208169999882,0,12,145,165,17,33,4,1,1,4.77591807666667,64.2719261,12606.9499474
12,1,8,AsyncTheta,146,1005_4Hz.avi,guitar14_oneeighty_4Hz.wav,guitar,2,2.4915230000006,1,12,90,146,84,164,2,1,1,4.37189305,64.2719261,12765.9542718
12,2,8,AsyncTheta,131,1366_4Hz.avi,synth34_oneeighty_4Hz.wav,synth,1,3.22473829999944,0,12,111,131,51,35,2,12,1,4.37189305,64.2719261,12772.0541267
12,3,8,SyncTheta,51,1331_4Hz.avi,synth47_zero_4Hz.wav,synth,1,2.17620399999942,1,12,51,35,131,111,1,7,2,4.37189305,64.2719261,12777.9620825
12,4,8,SyncTheta,86,1278_4Hz.avi,ep35_zero_4Hz.wav,ep,4,6.9188438000001,0,12,132,166,86,101,3,6,5,4.37189305,64.2719261,12782.5954977
12,5,8,SyncTheta,90,1273_4Hz.avi,guitar23_zero_4Hz.wav,guitar,4,2.3654602000006,0,12,90,146,164,84,1,3,2,4.37189305,64.2719261,12791.3949693
12,6,8,AsyncTheta,132,1356_4Hz.avi,ep30_oneeighty_4Hz.wav,ep,4,3.74072679999881,0,12,101,166,132,86,3,2,1,4.37189305,64.2719261,12795.7533349
12,7,8,SyncTheta,35,1039_4Hz.avi,synth5_zero_4Hz.wav,synth,1,3.43490050000037,1,12,35,51,111,131,1,10,1,4.37189305,64.2719261,12801.8114774
12,8,8,SyncTheta,18,1101_4Hz.avi,willow13_zero_4Hz.wav,willow,1,8.25854959999924,0,12,94,149,18,119,3,14,2,4.37189305,64.2719261,12807.5779626
12,9,8,SyncTheta,101,1295_4Hz.avi,ep40_zero_4Hz.wav,ep,4,3.21994930000074,0,12,86,101,166,132,2,11,4,4.37189305,64.2719261,12818.8527328
12,10,8,AsyncTheta,149,1200_4Hz.avi,willow8_oneeighty_4Hz.wav,willow,1,5.43635019999965,1,12,149,18,94,119,1,8,1,4.37189305,64.2719261,12825.4943864
12,11,8,SyncTheta,84,1294_4Hz.avi,guitar6_zero_4Hz.wav,guitar,2,2.71402839999973,0,12,146,164,84,90,3,16,3,4.37189305,64.2719261,12833.3190166
12,12,8,AsyncTheta,111,1390_4Hz.avi,synth3_oneeighty_4Hz.wav,synth,2,1.75390089999928,1,12,131,111,51,35,2,13,1,4.37189305,64.2719261,12838.1356412
12,13,8,AsyncTheta,166,1227_4Hz.avi,ep5_oneeighty_4Hz.wav,ep,2,7.64677180000035,1,12,86,166,101,132,2,4,3,4.37189305,64.2719261,12841.7103684
12,14,8,AsyncTheta,164,1087_4Hz.avi,guitar17_oneeighty_4Hz.wav,guitar,1,3.70595259999936,1,12,164,90,84,146,1,9,1,4.37189305,64.2719261,12851.7935089
12,15,8,AsyncTheta,119,1189_4Hz.avi,willow11_oneeighty_4Hz.wav,willow,3,6.16908230000081,0,12,94,119,149,18,2,15,4,4.37189305,64.2719261,12857.5102271
12,16,8,SyncTheta,94,1109_4Hz.avi,willow6_zero_4Hz.wav,willow,3,5.81193770000027,1,12,119,149,94,18,3,5,4,4.37189305,64.2719261,12866.6849891
12,1,9,AsyncTheta,115,1370_4Hz.avi,guitar9_oneeighty_4Hz.wav,guitar,2,2.84349400000065,0,12,170,53,15,115,4,1,1,4.85557946833333,64.2719261,13046.6050291
12,2,9,SyncTheta,61,1207_4Hz.avi,synth46_zero_4Hz.wav,synth,4,6.04543649999869,0,12,186,54,61,128,3,8,4,4.85557946833333,64.2719261,13051.9049305
12,3,9,SyncTheta,54,1181_4Hz.avi,synth12_zero_4Hz.wav,synth,3,4.63477680000142,1,12,61,186,54,128,3,3,2,4.85557946833333,64.2719261,13061.279749
12,4,9,AsyncTheta,123,1067_4Hz.avi,ep37_oneeighty_4Hz.wav,ep,4,3.12609879999945,1,12,6,189,106,123,4,14,5,4.85557946833333,64.2719261,13068.5880883
12,5,9,AsyncTheta,170,1062_4Hz.avi,guitar3_oneeighty_4Hz.wav,guitar,3,6.19116459999896,0,12,115,53,15,170,4,7,1,4.85557946833333,64.2719261,13073.7460577
12,6,9,SyncTheta,6,1007_4Hz.avi,ep8_zero_4Hz.wav,ep,2,4.75952659999894,0,12,6,123,106,189,1,4,1,4.85557946833333,64.2719261,13083.1375169
12,7,9,AsyncTheta,186,1031_4Hz.avi,synth7_oneeighty_4Hz.wav,synth,1,4.67116330000135,0,12,128,54,186,61,3,6,1,4.85557946833333,64.2719261,13089.537314
12,8,9,SyncTheta,75,1040_4Hz.avi,willow17_zero_4Hz.wav,willow,1,7.90790649999872,0,12,92,153,75,156,3,10,2,4.85557946833333,64.2719261,13097.0623541
12,9,9,SyncTheta,106,1113_4Hz.avi,ep29_zero_4Hz.wav,ep,4,5.01167739999983,0,12,106,123,189,6,1,15,1,4.85557946833333,64.2719261,13107.6618851
12,10,9,AsyncTheta,153,1157_4Hz.avi,willow1_oneeighty_4Hz.wav,willow,1,8.58751529999972,0,12,75,92,156,153,4,5,1,4.85557946833333,64.2719261,13115.6618557
12,11,9,SyncTheta,15,1422_4Hz.avi,guitar37_zero_4Hz.wav,guitar,3,2.95167709999987,0,12,115,170,53,15,4,16,1,4.85557946833333,64.2719261,13127.0864491
12,12,9,AsyncTheta,128,1269_4Hz.avi,synth14_oneeighty_4Hz.wav,synth,3,3.48310590000074,1,12,61,54,128,186,3,11,1,4.85557946833333,64.2719261,13132.7029837
12,13,9,AsyncTheta,189,1051_4Hz.avi,ep14_oneeighty_4Hz.wav,ep,3,2.71306340000046,0,12,6,189,123,106,2,13,3,4.85557946833333,64.2719261,13138.0777183
12,14,9,SyncTheta,53,1197_4Hz.avi,guitar46_zero_4Hz.wav,guitar,1,2.85809840000002,0,12,115,15,170,53,4,9,3,4.85557946833333,64.2719261,13143.8278006
12,15,9,SyncTheta,92,1030_4Hz.avi,willow23_zero_4Hz.wav,willow,1,2.92787820000012,0,12,75,92,153,156,2,12,1,4.85557946833333,64.2719261,13149.6526603
12,16,9,AsyncTheta,156,1060_4Hz.avi,willow7_oneeighty_4Hz.wav,willow,4,8.85200199999963,0,12,92,75,156,153,3,2,3,4.85557946833333,64.2719261,13155.2023436
12,1,10,NoFlickerHalf,12,1077_half_length.avi,choir18_half_length.wav,choir,2,7.68625820000125,0,12,182,98,12,62,3,7,1,4.23000662166667,64.2719261,13308.9066873
12,2,10,NoFlickerFull,126,1298_half_amp.avi,dar9_half_amp.wav,dar,1,5.94452430000092,0,12,43,126,116,45,2,5,1,4.23000662166667,64.2719261,13318.8396767
12,3,10,NoFlickerHalf,43,1141_half_length.avi,dar13_half_length.wav,dar,4,3.25066630000038,0,12,126,116,43,45,3,1,3,4.23000662166667,64.2719261,13326.356166
12,4,10,NoFlickerFull,107,1265_half_amp.avi,acoustic16_half_amp.wav,acoustic,4,4.94500710000102,0,12,107,9,4,96,1,14,1,4.23000662166667,64.2719261,13332.8644761
12,5,10,NoFlickerFull,98,1014_half_amp.avi,choir41_half_amp.wav,choir,1,2.90361040000062,1,12,98,12,62,182,1,10,5,4.23000662166667,64.2719261,13340.7058717
12,6,10,NoFlickerHalf,9,1054_half_length.avi,acoustic44_half_length.wav,acoustic,3,3.49236319999909,0,12,9,96,107,4,1,4,2,4.23000662166667,64.2719261,13346.514202
12,7,10,NoFlickerHalf,45,1203_half_length.avi,dar2_half_length.wav,dar,3,3.41706290000002,1,12,43,126,45,116,3,2,2,4.23000662166667,64.2719261,13352.7887772
12,8,10,NoFlickerHalf,74,1337_half_length.avi,orch24_half_length.wav,orch,2,10.8703589000015,0,12,91,110,174,74,4,9,3,4.23000662166667,64.2719261,13359.7219856
12,9,10,NoFlickerHalf,4,1167_half_length.avi,acoustic37_half_length.wav,acoustic,3,2.86635899999965,1,12,9,96,4,107,3,15,3,4.23000662166667,64.2719261,13372.4218746
12,10,10,NoFlickerFull,174,1119_half_amp.avi,orch45_half_amp.wav,orch,1,3.43210479999834,1,12,174,91,110,74,1,6,3,4.23000662166667,64.2719261,13378.5217358
12,11,10,NoFlickerHalf,62,1058_half_length.avi,choir19_half_length.wav,choir,4,2.94057679999969,0,12,182,62,12,98,2,16,1,4.23000662166667,64.2719261,13384.76323
12,12,10,NoFlickerFull,116,1420_half_amp.avi,dar18_half_amp.wav,dar,4,4.27950969999983,1,12,45,43,126,116,4,11,1,4.23000662166667,64.2719261,13390.2629134
12,13,10,NoFlickerFull,96,1027_half_amp.avi,acoustic40_half_amp.wav,acoustic,1,4.55982490000133,0,12,9,96,107,4,2,8,1,4.23000662166667,64.2719261,13397.3377305
12,14,10,NoFlickerFull,182,1277_half_amp.avi,choir39_half_amp.wav,choir,2,3.21120220000012,1,12,62,182,98,12,2,12,4,4.23000662166667,64.2719261,13404.7627125
12,15,10,NoFlickerFull,110,1443_half_amp.avi,orch3_half_amp.wav,orch,4,3.45358250000027,0,12,110,174,91,74,1,13,1,4.23000662166667,64.2719261,13409.7709057
12,16,10,NoFlickerHalf,91,1340_half_length.avi,orch46_half_length.wav,orch,2,2.40098500000022,0,12,110,174,74,91,4,3,1,4.23000662166667,64.2719261,13415.6955177
12,1,11,NoFlickerHalf,72,1097_half_length.avi,choir29_half_length.wav,choir,1,1.63118649999888,1,12,72,124,160,13,1,1,5,4.07863919333333,64.2719261,13574.208306
12,2,11,NoFlickerHalf,80,1082_half_length.avi,dar15_half_length.wav,dar,2,2.91874639999878,0,12,154,136,80,2,3,8,1,4.07863919333333,64.2719261,13577.9746037
12,3,11,NoFlickerFull,154,1074_half_amp.avi,dar5_half_amp.wav,dar,4,4.89832790000037,0,12,80,154,136,2,2,4,4,4.07863919333333,64.2719261,13583.0995166
12,4,11,NoFlickerHalf,39,1061_half_length.avi,acoustic11_half_length.wav,acoustic,2,2.19001180000123,1,12,113,39,60,169,2,10,3,4.07863919333333,64.2719261,13591.0078664
12,5,11,NoFlickerFull,124,1183_half_amp.avi,choir24_half_amp.wav,choir,4,5.90335179999965,0,12,13,124,72,160,2,6,3,4.07863919333333,64.2719261,13596.1825288
12,6,11,NoFlickerFull,169,1083_half_amp.avi,acoustic43_half_amp.wav,acoustic,2,3.35333910000008,1,12,39,169,60,113,2,2,1,4.07863919333333,64.2719261,13604.1323284
12,7,11,NoFlickerHalf,2,1431_half_length.avi,dar24_half_length.wav,dar,3,2.07901950000087,0,12,2,80,136,154,1,7,4,4.07863919333333,64.2719261,13610.8905719
12,8,11,NoFlickerFull,192,1231_half_amp.avi,orch32_half_amp.wav,orch,2,1.54290749999927,0,12,192,143,81,85,1,11,5,4.07863919333333,64.2719261,13615.7986674
12,9,11,NoFlickerHalf,60,1249_half_length.avi,acoustic20_half_length.wav,acoustic,2,2.33433999999943,0,12,169,113,39,60,4,12,1,4.07863919333333,64.2719261,13618.8821713
12,10,11,NoFlickerFull,143,1127_half_amp.avi,orch11_half_amp.wav,orch,3,4.45766290000029,0,12,85,143,81,192,2,9,4,4.07863919333333,64.2719261,13624.498321
12,11,11,NoFlickerHalf,13,1201_half_length.avi,choir7_half_length.wav,choir,2,1.54864129999987,1,12,72,13,124,160,2,16,1,4.07863919333333,64.2719261,13632.0401473
12,12,11,NoFlickerFull,136,1175_half_amp.avi,dar4_half_amp.wav,dar,2,4.58873679999851,0,12,2,80,154,136,4,15,5,4.07863919333333,64.2719261,13635.5981556
12,13,11,NoFlickerFull,113,1037_half_amp.avi,acoustic23_half_amp.wav,acoustic,2,5.04058840000107,1,12,39,113,169,60,2,3,2,4.07863919333333,64.2719261,13643.0062754
12,14,11,NoFlickerFull,160,1421_half_amp.avi,choir13_half_amp.wav,choir,4,2.64367029999994,0,12,160,72,124,13,1,14,1,4.07863919333333,64.2719261,13650.3811858
12,15,11,NoFlickerHalf,81,1444_half_length.avi,orch4_half_length.wav,orch,4,3.16342889999942,0,12,81,192,143,85,1,13,2,4.07863919333333,64.2719261,13655.1812038
12,16,11,NoFlickerHalf,85,1383_half_length.avi,orch23_half_length.wav,orch,1,2.20661709999877,0,12,81,85,143,192,2,5,1,4.07863919333333,64.2719261,13660.8392509
12,1,12,AsyncTheta,161,1433_4Hz.avi,guitar2_oneeighty_4Hz.wav,guitar,1,4.10141370000019,0,12,179,161,3,93,2,4,1,4.93799283666667,64.2719261,13862.4339181
12,2,12,SyncTheta,70,1093_4Hz.avi,synth6_zero_4Hz.wav,synth,2,4.20765779999965,0,12,125,109,135,70,4,11,1,4.93799283666667,64.2719261,13868.9005882
12,3,12,AsyncTheta,125,1050_4Hz.avi,synth36_oneeighty_4Hz.wav,synth,3,4.43070389999957,0,12,125,109,135,70,1,8,1,4.93799283666667,64.2719261,13876.666988
12,4,12,AsyncTheta,180,1006_4Hz.avi,ep4_oneeighty_4Hz.wav,ep,4,1.62802310000006,1,12,25,65,117,180,4,12,2,4.93799283666667,64.2719261,13884.2335199
12,5,12,SyncTheta,3,1156_4Hz.avi,guitar31_zero_4Hz.wav,guitar,2,2.56334659999993,0,12,3,93,179,161,1,5,2,4.93799283666667,64.2719261,13889.2915935
12,6,12,AsyncTheta,117,1144_4Hz.avi,ep39_oneeighty_4Hz.wav,ep,1,3.77005269999972,0,12,25,180,117,65,3,1,1,4.93799283666667,64.2719261,13894.3663837
12,7,12,SyncTheta,109,1299_4Hz.avi,synth18_zero_4Hz.wav,synth,3,3.04876550000154,0,12,125,109,70,135,2,9,2,4.93799283666667,64.2719261,13899.7161463
12,8,12,AsyncTheta,178,1057_4Hz.avi,willow9_oneeighty_4Hz.wav,willow,1,3.80259770000157,0,12,22,55,157,178,4,7,1,4.93799283666667,64.2719261,13906.3327017
12,9,12,SyncTheta,65,1013_4Hz.avi,ep22_zero_4Hz.wav,ep,2,2.62690549999934,1,12,117,65,25,180,2,13,4,4.93799283666667,64.2719261,13913.0327665
12,10,12,SyncTheta,55,1044_4Hz.avi,willow4_zero_4Hz.wav,willow,3,2.34196569999949,1,12,178,157,55,22,3,3,2,4.93799283666667,64.2719261,13917.7240316
12,11,12,AsyncTheta,179,1186_4Hz.avi,guitar30_oneeighty_4Hz.wav,guitar,2,2.32023110000046,0,12,179,161,93,3,1,14,2,4.93799283666667,64.2719261,13921.7656259
12,12,12,AsyncTheta,135,1154_4Hz.avi,synth38_oneeighty_4Hz.wav,synth,3,2.15549809999902,1,12,109,125,135,70,3,16,1,4.93799283666667,64.2719261,13927.5157161
12,13,12,SyncTheta,25,1094_4Hz.avi,ep15_zero_4Hz.wav,ep,1,2.08241269999962,1,12,25,117,180,65,1,10,4,4.93799283666667,64.2719261,13932.8819262
12,14,12,SyncTheta,93,1046_4Hz.avi,guitar18_zero_4Hz.wav,guitar,2,3.34055930000068,0,12,93,179,161,3,1,6,1,4.93799283666667,64.2719261,13937.4568179
12,15,12,AsyncTheta,157,1225_4Hz.avi,willow14_oneeighty_4Hz.wav,willow,4,2.60032259999934,1,12,178,22,55,157,4,15,1,4.93799283666667,64.2719261,13944.1986159
12,16,12,SyncTheta,22,1212_4Hz.avi,willow20_zero_4Hz.wav,willow,4,10.7250059999988,1,12,178,55,157,22,4,2,3,4.93799283666667,64.2719261,13948.8566179
