ParticipantID,TrialNumber,BlockNumber,Condition,ClipID,VideoFile,SoundFile,SoundCategory,Response,RT,Accuracy,ConditionID,Frame1,Frame2,Frame3,Frame4,CorrectKey,EncodingPosition,Rating,BlockDuration,ExperimentDuration,MemoryTestOnset
4,1,1,NoFlickerFull,79,1071_half_amp.avi,acoustic17_half_amp.wav,acoustic,1,5.42692099999999,1,4,79,20,5,105,1,15,1,5.26363313166667,57.6386457416667,1550.5997342
4,2,1,NoFlickerFull,147,1304_half_amp.avi,dar10_half_amp.wav,dar,4,7.74205749999987,0,4,114,64,147,40,3,14,2,5.26363313166667,57.6386457416667,1558.1245954
4,3,1,NoFlickerHalf,64,1098_half_length.avi,dar11_half_length.wav,dar,3,3.97267160000001,1,4,147,114,64,40,3,6,2,5.26363313166667,57.6386457416667,1567.8493746
4,4,1,NoFlickerFull,97,1368_half_amp.avi,choir30_half_amp.wav,choir,2,6.11570119999988,1,4,52,97,63,121,2,2,3,5.26363313166667,57.6386457416667,1575.2494108
4,5,1,NoFlickerHalf,102,1012_half_length.avi,orch18_half_length.wav,orch,4,9.73477939999998,1,4,158,28,188,102,4,10,3,5.26363313166667,57.6386457416667,1583.2740063
4,6,1,NoFlickerFull,114,1322_half_amp.avi,dar14_half_amp.wav,dar,1,5.24871770000004,1,4,114,64,147,40,1,3,2,5.26363313166667,57.6386457416667,1595.6568537
4,7,1,NoFlickerFull,105,1003_half_amp.avi,acoustic6_half_amp.wav,acoustic,4,4.80361420000008,0,4,5,20,105,79,3,5,1,5.26363313166667,57.6386457416667,1603.8817709
4,8,1,NoFlickerHalf,63,1128_half_length.avi,choir26_half_length.wav,choir,2,7.43225749999988,0,4,121,52,97,63,4,8,2,5.26363313166667,57.6386457416667,1610.698433
4,9,1,NoFlickerHalf,52,1387_half_length.avi,choir2_half_length.wav,choir,3,4.38162409999995,1,4,97,63,52,121,3,11,4,5.26363313166667,57.6386457416667,1620.4231665
4,10,1,NoFlickerFull,188,1036_half_amp.avi,orch26_half_amp.wav,orch,3,5.17998309999984,1,4,102,158,188,28,3,7,3,5.26363313166667,57.6386457416667,1628.2393592
4,11,1,NoFlickerFull,158,1206_half_amp.avi,orch6_half_amp.wav,orch,3,3.68333680000001,1,4,188,102,158,28,3,13,2,5.26363313166667,57.6386457416667,1636.8225135
4,12,1,NoFlickerHalf,5,1381_half_length.avi,acoustic1_half_length.wav,acoustic,1,6.61852420000014,0,4,105,20,5,79,3,9,2,5.26363313166667,57.6386457416667,1643.4472712
4,13,1,NoFlickerFull,121,1354_half_amp.avi,choir22_half_amp.wav,choir,1,4.03961370000002,1,4,121,97,63,52,1,16,4,5.26363313166667,57.6386457416667,1652.7221054
4,14,1,NoFlickerHalf,28,1148_half_length.avi,orch19_half_length.wav,orch,4,3.72831470000006,0,4,28,158,102,188,1,1,1,5.26363313166667,57.6386457416667,1658.9636068
4,15,1,NoFlickerHalf,40,1239_half_length.avi,dar6_half_length.wav,dar,2,7.37819710000008,0,4,40,147,114,64,1,12,2,5.26363313166667,57.6386457416667,1664.7051715
4,16,1,NoFlickerHalf,20,1236_half_length.avi,acoustic25_half_length.wav,acoustic,4,2.50705669999979,1,4,5,105,79,20,4,4,2,5.26363313166667,57.6386457416667,1674.3047355
4,1,2,SyncTheta,87,1142_4Hz.avi,ep3_zero_4Hz.wav,ep,2,7.55878959999995,0,4,41,150,87,176,3,15,1,5.118201275,57.6386457416667,1867.7662977
4,2,2,AsyncTheta,155,1042_4Hz.avi,synth10_oneeighty_4Hz.wav,synth,3,6.93144889999985,1,4,127,8,155,71,3,12,4,5.118201275,57.6386457416667,1877.2576707
4,3,2,AsyncTheta,127,1411_4Hz.avi,synth28_oneeighty_4Hz.wav,synth,3,6.32387199999994,0,4,127,155,8,71,1,2,1,5.118201275,57.6386457416667,1886.0906955
4,4,2,SyncTheta,67,1310_4Hz.avi,guitar21_zero_4Hz.wav,guitar,4,5.30936530000008,0,4,112,59,67,185,3,5,3,5.118201275,57.6386457416667,1895.4073488
4,5,2,SyncTheta,32,1360_4Hz.avi,willow10_zero_4Hz.wav,willow,4,4.68010570000001,1,4,152,171,37,32,4,10,1,5.118201275,57.6386457416667,1903.6735961
4,6,2,SyncTheta,8,1252_4Hz.avi,synth25_zero_4Hz.wav,synth,1,5.43132549999996,1,4,8,71,155,127,1,1,3,5.118201275,57.6386457416667,1910.8319111
4,7,2,AsyncTheta,150,1394_4Hz.avi,ep11_oneeighty_4Hz.wav,ep,3,5.04623760000004,0,4,176,150,87,41,2,8,2,5.118201275,57.6386457416667,1919.5981416
4,8,2,AsyncTheta,185,1131_4Hz.avi,guitar45_oneeighty_4Hz.wav,guitar,2,5.76016890000005,0,4,59,112,185,67,3,11,1,5.118201275,57.6386457416667,1926.9648292
4,9,2,AsyncTheta,112,1388_4Hz.avi,guitar39_oneeighty_4Hz.wav,guitar,4,3.35827999999992,0,4,112,185,59,67,1,13,3,5.118201275,57.6386457416667,1934.5394177
4,10,2,SyncTheta,37,1237_4Hz.avi,willow15_zero_4Hz.wav,willow,4,4.08464779999986,0,4,152,32,37,171,3,7,2,5.118201275,57.6386457416667,1939.7892357
4,11,2,AsyncTheta,152,1445_4Hz.avi,willow2_oneeighty_4Hz.wav,willow,2,3.55118870000001,1,4,32,152,37,171,2,16,3,5.118201275,57.6386457416667,1946.3975016
4,12,2,SyncTheta,41,1132_4Hz.avi,ep10_zero_4Hz.wav,ep,4,4.14605649999999,1,4,150,87,176,41,4,9,2,5.118201275,57.6386457416667,1951.8974837
4,13,2,SyncTheta,59,1346_4Hz.avi,guitar33_zero_4Hz.wav,guitar,2,4.94702699999993,0,4,112,185,67,59,4,14,2,5.118201275,57.6386457416667,1957.7971984
4,14,2,AsyncTheta,171,1280_4Hz.avi,willow19_oneeighty_4Hz.wav,willow,1,3.65952780000021,0,4,37,152,32,171,4,4,2,5.118201275,57.6386457416667,1965.0387875
4,15,2,SyncTheta,71,1076_4Hz.avi,synth21_zero_4Hz.wav,synth,1,4.78314060000002,0,4,155,127,71,8,3,6,2,5.118201275,57.6386457416667,1971.5549678
4,16,2,AsyncTheta,176,1405_4Hz.avi,ep46_oneeighty_4Hz.wav,ep,3,4.91054579999991,0,4,87,176,150,41,2,3,1,5.118201275,57.6386457416667,1979.1798515
4,1,3,SyncTheta,24,1217_4Hz.avi,ep44_zero_4Hz.wav,ep,3,3.48090189999994,0,4,144,16,177,24,4,16,1,4.464376235,57.6386457416667,2133.9173644
4,2,3,SyncTheta,95,1359_4Hz.avi,synth33_zero_4Hz.wav,synth,2,2.04861500000015,1,4,100,95,184,129,2,15,2,4.464376235,57.6386457416667,2140.0174561
4,3,3,AsyncTheta,129,1286_4Hz.avi,synth30_oneeighty_4Hz.wav,synth,2,4.77493079999977,0,4,184,95,100,129,4,7,4,4.464376235,57.6386457416667,2145.3254142
4,4,3,SyncTheta,46,1210_4Hz.avi,guitar48_zero_4Hz.wav,guitar,2,6.07294520000005,0,4,46,183,77,151,1,4,2,4.464376235,57.6386457416667,2153.025199
4,5,3,AsyncTheta,167,1177_4Hz.avi,willow24_oneeighty_4Hz.wav,willow,2,3.81374480000022,0,4,27,118,66,167,4,12,1,4.464376235,57.6386457416667,2160.9419141
4,6,3,SyncTheta,100,1107_4Hz.avi,synth23_zero_4Hz.wav,synth,2,7.7808229000002,0,4,95,184,100,129,3,5,1,4.464376235,57.6386457416667,2167.9664835
4,7,3,SyncTheta,16,1442_4Hz.avi,ep34_zero_4Hz.wav,ep,2,4.58881210000027,0,4,24,177,16,144,3,2,1,4.464376235,57.6386457416667,2178.8329329
4,8,3,SyncTheta,77,1008_4Hz.avi,guitar42_zero_4Hz.wav,guitar,2,3.78489959999979,1,4,46,77,183,151,2,9,1,4.464376235,57.6386457416667,2186.4412424
4,9,3,AsyncTheta,183,1374_4Hz.avi,guitar16_oneeighty_4Hz.wav,guitar,4,5.86499850000018,0,4,151,77,183,46,3,10,1,4.464376235,57.6386457416667,2192.4491933
4,10,3,SyncTheta,66,1215_4Hz.avi,willow18_zero_4Hz.wav,willow,1,3.51103049999983,1,4,66,27,167,118,1,11,1,4.464376235,57.6386457416667,2200.6241995
4,11,3,SyncTheta,27,1202_4Hz.avi,willow16_zero_4Hz.wav,willow,4,4.22637329999998,1,4,66,167,118,27,4,13,1,4.464376235,57.6386457416667,2207.2071017
4,12,3,AsyncTheta,144,1255_4Hz.avi,ep28_oneeighty_4Hz.wav,ep,4,5.85985630000005,0,4,16,177,144,24,3,6,2,4.464376235,57.6386457416667,2213.990233
4,13,3,AsyncTheta,151,1259_4Hz.avi,guitar43_oneeighty_4Hz.wav,guitar,1,5.28489080000008,0,4,46,183,151,77,3,14,2,4.464376235,57.6386457416667,2221.6067269
4,14,3,AsyncTheta,118,1020_4Hz.avi,willow22_oneeighty_4Hz.wav,willow,3,6.56217530000004,0,4,66,118,167,27,2,3,1,4.464376235,57.6386457416667,2229.2734293
4,15,3,AsyncTheta,184,1052_4Hz.avi,synth40_oneeighty_4Hz.wav,synth,4,5.95158440000023,1,4,95,129,100,184,4,8,2,4.464376235,57.6386457416667,2239.3230482
4,16,3,AsyncTheta,177,1283_4Hz.avi,ep38_oneeighty_4Hz.wav,ep,4,4.10298650000004,0,4,16,177,24,144,2,1,3,4.464376235,57.6386457416667,2248.0394078
4,1,4,NoFlickerFull,83,1139_half_amp.avi,acoustic27_half_amp.wav,acoustic,4,5.6593914,0,4,83,1,104,58,1,16,2,4.159374585,57.6386457416667,2394.0188956
4,2,4,NoFlickerHalf,49,1221_half_length.avi,dar21_half_length.wav,dar,1,6.14577259999987,0,4,82,162,49,29,3,10,2,4.159374585,57.6386457416667,2401.6521283
4,3,4,NoFlickerFull,82,1449_half_amp.avi,dar17_half_amp.wav,dar,3,3.66214390000005,1,4,162,29,82,49,3,3,2,4.159374585,57.6386457416667,2410.0269964
4,4,4,NoFlickerFull,88,1191_half_amp.avi,choir20_half_amp.wav,choir,1,3.63237819999995,0,4,76,88,10,11,2,2,3,4.159374585,57.6386457416667,2416.0184012
4,5,4,NoFlickerHalf,57,1309_half_length.avi,orch7_half_length.wav,orch,1,5.94036539999979,0,4,137,57,134,42,2,11,4,4.159374585,57.6386457416667,2421.5348699
4,6,4,NoFlickerHalf,29,1158_half_length.avi,dar23_half_length.wav,dar,2,5.22385420000001,0,4,29,49,82,162,1,1,2,4.159374585,57.6386457416667,2429.8181462
4,7,4,NoFlickerFull,104,1111_half_amp.avi,acoustic31_half_amp.wav,acoustic,4,6.12361089999968,0,4,1,104,58,83,2,12,2,4.159374585,57.6386457416667,2437.2345094
4,8,4,NoFlickerHalf,10,1179_half_length.avi,choir4_half_length.wav,choir,1,2.28473440000016,1,4,10,11,88,76,1,4,4,4.159374585,57.6386457416667,2446.3758214
4,9,4,NoFlickerFull,76,1293_half_amp.avi,choir23_half_amp.wav,choir,3,3.64900899999975,1,4,10,11,76,88,3,8,3,4.159374585,57.6386457416667,2450.6758238
4,10,4,NoFlickerFull,137,1303_half_amp.avi,orch10_half_amp.wav,orch,2,3.69680160000007,0,4,137,134,57,42,1,9,2,4.159374585,57.6386457416667,2456.4838411
4,11,4,NoFlickerFull,134,1026_half_amp.avi,orch16_half_amp.wav,orch,1,5.65681749999976,0,4,57,42,134,137,3,15,3,4.159374585,57.6386457416667,2461.8170404
4,12,4,NoFlickerHalf,1,1064_half_length.avi,acoustic12_half_length.wav,acoustic,3,3.54004930000019,0,4,1,104,58,83,1,14,2,4.159374585,57.6386457416667,2470.5751621
4,13,4,NoFlickerHalf,11,1448_half_length.avi,choir36_half_length.wav,choir,2,4.44077219999963,1,4,10,11,88,76,2,13,4,4.159374585,57.6386457416667,2476.6752325
4,14,4,NoFlickerHalf,42,1339_half_length.avi,orch31_half_length.wav,orch,2,3.78535920000013,0,4,137,134,57,42,4,6,2,4.159374585,57.6386457416667,2483.7164811
4,15,4,NoFlickerFull,162,1358_half_amp.avi,dar7_half_amp.wav,dar,1,4.2601208000001,1,4,162,82,29,49,1,7,3,4.159374585,57.6386457416667,2490.6247332
4,16,4,NoFlickerHalf,58,1323_half_length.avi,acoustic29_half_length.wav,acoustic,4,4.48027060000004,0,4,104,58,83,1,2,5,4,4.159374585,57.6386457416667,2497.4328873
4,1,5,NoFlickerHalf,44,1254_half_length.avi,acoustic48_half_length.wav,acoustic,3,6.35923790000015,1,4,190,21,44,148,3,13,1,4.42892515833333,57.6386457416667,2649.7036949
4,2,5,NoFlickerHalf,34,1319_half_length.avi,dar22_half_length.wav,dar,2,4.38695080000025,0,4,122,14,191,34,4,16,3,4.42892515833333,57.6386457416667,2658.228511
4,3,5,NoFlickerFull,122,1289_half_amp.avi,dar3_half_amp.wav,dar,1,4.46092720000024,0,4,14,122,191,34,2,12,2,4.42892515833333,57.6386457416667,2666.0950586
4,4,5,NoFlickerFull,159,1091_half_amp.avi,choir8_half_amp.wav,choir,2,5.76725989999977,0,4,159,78,68,69,1,4,1,4.42892515833333,57.6386457416667,2673.1616567
4,5,5,NoFlickerFull,142,1155_half_amp.avi,orch9_half_amp.wav,orch,2,6.83724110000003,1,4,30,142,141,36,2,9,4,4.42892515833333,57.6386457416667,2680.6614678
4,6,5,NoFlickerFull,191,1314_half_amp.avi,dar19_half_amp.wav,dar,4,6.43779730000006,0,4,191,34,14,122,1,6,4,4.42892515833333,57.6386457416667,2689.8443152
4,7,5,NoFlickerHalf,21,1112_half_length.avi,acoustic32_half_length.wav,acoustic,2,8.46714669999983,1,4,148,21,190,44,2,3,2,4.42892515833333,57.6386457416667,2698.1193248
4,8,5,NoFlickerHalf,68,1023_half_length.avi,choir3_half_length.wav,choir,2,4.15160550000019,0,4,68,69,159,78,1,7,2,4.42892515833333,57.6386457416667,2709.8440249
4,9,5,NoFlickerFull,78,1301_half_amp.avi,choir11_half_amp.wav,choir,3,3.79973719999998,0,4,68,69,159,78,4,11,1,4.42892515833333,57.6386457416667,2716.1019093
4,10,5,NoFlickerHalf,30,1016_half_length.avi,orch14_half_length.wav,orch,1,4.49070669999992,1,4,30,36,141,142,1,8,2,4.42892515833333,57.6386457416667,2723.4103374
4,11,5,NoFlickerHalf,36,1284_half_length.avi,orch29_half_length.wav,orch,2,4.87997159999986,1,4,30,36,141,142,2,10,3,4.42892515833333,57.6386457416667,2731.2349444
4,12,5,NoFlickerFull,190,1427_half_amp.avi,acoustic46_half_amp.wav,acoustic,2,5.75871559999996,0,4,44,148,190,21,3,5,2,4.42892515833333,57.6386457416667,2739.2846756
4,13,5,NoFlickerHalf,69,1216_half_length.avi,choir32_half_length.wav,choir,1,2.88712940000005,1,4,69,68,159,78,1,15,1,4.42892515833333,57.6386457416667,2746.8510475
4,14,5,NoFlickerFull,141,1401_half_amp.avi,orch12_half_amp.wav,orch,2,1.00183820000029,0,4,36,30,142,141,4,1,3,4.42892515833333,57.6386457416667,2752.3676794
4,15,5,NoFlickerHalf,14,1416_half_length.avi,dar1_half_length.wav,dar,4,4.97097159999976,0,4,191,34,14,122,3,14,2,4.42892515833333,57.6386457416667,2755.7926206
4,16,5,NoFlickerFull,148,1121_half_amp.avi,acoustic26_half_amp.wav,acoustic,4,3.60905790000015,1,4,44,21,190,148,4,2,3,4.42892515833333,57.6386457416667,2764.2675987
4,1,6,SyncTheta,99,1173_4Hz.avi,ep6_zero_4Hz.wav,ep,2,6.72467280000001,0,4,138,26,99,173,3,15,1,4.70332479666667,57.6386457416667,2924.6464885
4,2,6,AsyncTheta,140,1270_4Hz.avi,synth17_oneeighty_4Hz.wav,synth,1,6.38269979999995,0,4,163,140,89,50,2,16,2,4.70332479666667,57.6386457416667,2933.4795173
4,3,6,SyncTheta,89,1393_4Hz.avi,synth41_zero_4Hz.wav,synth,2,5.13194799999974,0,4,50,140,163,89,4,5,1,4.70332479666667,57.6386457416667,2943.4375364
4,4,6,AsyncTheta,172,1350_4Hz.avi,guitar10_oneeighty_4Hz.wav,guitar,3,5.49639079999997,0,4,7,168,73,172,4,1,2,4.70332479666667,57.6386457416667,2952.0540736
4,5,6,AsyncTheta,130,1081_4Hz.avi,willow5_oneeighty_4Hz.wav,willow,3,5.73651610000024,0,4,48,130,120,108,2,13,1,4.70332479666667,57.6386457416667,2960.5954247
4,6,6,AsyncTheta,163,1441_4Hz.avi,synth27_oneeighty_4Hz.wav,synth,4,3.53408390000004,1,4,89,140,50,163,4,4,1,4.70332479666667,57.6386457416667,2969.3788162
4,7,6,AsyncTheta,173,1348_4Hz.avi,ep31_oneeighty_4Hz.wav,ep,2,4.17419420000033,0,4,138,99,173,26,3,7,2,4.70332479666667,57.6386457416667,2976.0534826
4,8,6,AsyncTheta,168,1204_4Hz.avi,guitar36_oneeighty_4Hz.wav,guitar,4,4.52637050000021,1,4,172,7,73,168,4,2,3,4.70332479666667,57.6386457416667,2983.4531883
4,9,6,SyncTheta,73,1369_4Hz.avi,guitar19_zero_4Hz.wav,guitar,4,3.98592350000035,0,4,168,7,73,172,3,8,1,4.70332479666667,57.6386457416667,2990.6863719
4,10,6,SyncTheta,108,1415_4Hz.avi,willow3_zero_4Hz.wav,willow,3,3.97324039999967,0,4,120,108,130,48,2,12,1,4.70332479666667,57.6386457416667,2997.8528221
4,11,6,SyncTheta,48,1021_4Hz.avi,willow12_zero_4Hz.wav,willow,4,3.61196740000014,0,4,108,120,48,130,3,14,2,4.70332479666667,57.6386457416667,3003.7110568
4,12,6,SyncTheta,26,1190_4Hz.avi,ep7_zero_4Hz.wav,ep,2,6.26256460000013,0,4,173,99,26,138,3,11,2,4.70332479666667,57.6386457416667,3009.7026489
4,13,6,SyncTheta,7,1017_4Hz.avi,guitar47_zero_4Hz.wav,guitar,2,4.73000499999989,1,4,168,7,73,172,2,10,2,4.70332479666667,57.6386457416667,3019.127277
4,14,6,AsyncTheta,120,1365_4Hz.avi,willow21_oneeighty_4Hz.wav,willow,2,6.33391650000021,1,4,108,120,130,48,2,6,2,4.70332479666667,57.6386457416667,3025.6104467
4,15,6,SyncTheta,50,1049_4Hz.avi,synth43_zero_4Hz.wav,synth,1,7.15612329999976,0,4,89,140,50,163,3,9,2,4.70332479666667,57.6386457416667,3035.2101984
4,16,6,AsyncTheta,138,1149_4Hz.avi,ep2_oneeighty_4Hz.wav,ep,1,5.78967069999999,0,4,26,173,99,138,4,3,2,4.70332479666667,57.6386457416667,3044.5018382
4,1,7,AsyncTheta,132,1356_4Hz.avi,ep30_oneeighty_4Hz.wav,ep,3,6.4136926000001,0,4,132,101,166,86,1,16,1,5.179617915,57.6386457416667,3238.9381929
4,2,7,SyncTheta,35,1039_4Hz.avi,synth5_zero_4Hz.wav,synth,3,4.64215590000003,0,4,111,35,51,131,2,11,4,5.179617915,57.6386457416667,3246.979492
4,3,7,AsyncTheta,131,1366_4Hz.avi,synth34_oneeighty_4Hz.wav,synth,3,3.65739679999979,1,4,111,51,131,35,3,9,2,5.179617915,57.6386457416667,3254.779324
4,4,7,AsyncTheta,146,1005_4Hz.avi,guitar14_oneeighty_4Hz.wav,guitar,4,4.53173000000015,1,4,90,164,84,146,4,2,1,5.179617915,57.6386457416667,3262.0125797
4,5,7,SyncTheta,18,1101_4Hz.avi,willow13_zero_4Hz.wav,willow,2,4.25662180000018,1,4,119,18,149,94,2,8,1,5.179617915,57.6386457416667,3269.7125612
4,6,7,AsyncTheta,111,1390_4Hz.avi,synth3_oneeighty_4Hz.wav,synth,4,3.60349009999982,1,4,35,131,51,111,4,3,4,5.179617915,57.6386457416667,3276.9204942
4,7,7,SyncTheta,101,1295_4Hz.avi,ep40_zero_4Hz.wav,ep,2,5.9272605000001,0,4,132,86,166,101,4,7,3,5.179617915,57.6386457416667,3282.16227
4,8,7,SyncTheta,84,1294_4Hz.avi,guitar6_zero_4Hz.wav,guitar,1,6.85093630000028,0,4,164,146,84,90,3,6,2,5.179617915,57.6386457416667,3291.2116478
4,9,7,SyncTheta,90,1273_4Hz.avi,guitar23_zero_4Hz.wav,guitar,2,3.67042979999997,1,4,146,90,164,84,2,13,1,5.179617915,57.6386457416667,3300.5281514
4,10,7,AsyncTheta,119,1189_4Hz.avi,willow11_oneeighty_4Hz.wav,willow,3,4.08858839999994,1,4,18,94,119,149,3,5,2,5.179617915,57.6386457416667,3307.4030819
4,11,7,AsyncTheta,149,1200_4Hz.avi,willow8_oneeighty_4Hz.wav,willow,2,4.76701880000019,0,4,94,119,149,18,3,12,2,5.179617915,57.6386457416667,3314.0694799
4,12,7,SyncTheta,86,1278_4Hz.avi,ep35_zero_4Hz.wav,ep,4,3.94592719999991,0,4,132,101,86,166,3,14,2,5.179617915,57.6386457416667,3322.2192722
4,13,7,AsyncTheta,164,1087_4Hz.avi,guitar17_oneeighty_4Hz.wav,guitar,1,5.86891229999992,0,4,84,146,90,164,4,15,2,5.179617915,57.6386457416667,3329.6607029
4,14,7,SyncTheta,94,1109_4Hz.avi,willow6_zero_4Hz.wav,willow,2,5.60766369999965,0,4,119,149,18,94,4,1,1,5.179617915,57.6386457416667,3338.093799
4,15,7,SyncTheta,51,1331_4Hz.avi,synth47_zero_4Hz.wav,synth,1,4.46558550000009,0,4,35,51,131,111,2,10,2,5.179617915,57.6386457416667,3347.0269152
4,16,7,AsyncTheta,166,1227_4Hz.avi,ep5_oneeighty_4Hz.wav,ep,3,7.04420260000006,0,4,166,86,101,132,1,4,2,5.179617915,57.6386457416667,3354.2187436
4,1,8,NoFlickerFull,133,1341_half_amp.avi,acoustic14_half_amp.wav,acoustic,3,5.52139249999982,1,4,47,175,133,23,3,16,2,5.17509062666667,57.6386457416667,3565.9377106
4,2,8,NoFlickerFull,187,1164_half_amp.avi,dar12_half_amp.wav,dar,3,3.83619259999978,1,4,103,31,187,56,3,14,4,5.17509062666667,57.6386457416667,3573.4709182
4,3,8,NoFlickerHalf,56,1063_half_length.avi,dar16_half_length.wav,dar,4,2.42105450000008,0,4,56,187,31,103,1,10,1,5.17509062666667,57.6386457416667,3579.4875809
4,4,8,NoFlickerFull,139,1192_half_amp.avi,choir5_half_amp.wav,choir,1,4.39116699999977,1,4,139,38,181,19,1,3,1,5.17509062666667,57.6386457416667,3584.3623815
4,5,8,NoFlickerFull,145,1352_half_amp.avi,orch39_half_amp.wav,orch,4,3.6235128000003,0,4,33,17,145,165,3,5,1,5.17509062666667,57.6386457416667,3591.7371596
4,6,8,NoFlickerFull,103,1084_half_amp.avi,dar20_half_amp.wav,dar,3,7.28992470000003,1,4,31,56,103,187,3,7,2,5.17509062666667,57.6386457416667,3596.9620297
4,7,8,NoFlickerHalf,23,1330_half_length.avi,acoustic47_half_length.wav,acoustic,1,3.99212249999982,0,4,47,133,23,175,3,12,2,5.17509062666667,57.6386457416667,3607.4617822
4,8,8,NoFlickerFull,181,1168_half_amp.avi,choir1_half_amp.wav,choir,4,6.27105519999986,0,4,181,139,38,19,1,4,2,5.17509062666667,57.6386457416667,3614.2867909
4,9,8,NoFlickerHalf,38,1184_half_length.avi,choir33_half_length.wav,choir,1,4.6280142999999,0,4,19,38,139,181,2,9,2,5.17509062666667,57.6386457416667,3622.0946178
4,10,8,NoFlickerFull,165,1410_half_amp.avi,orch43_half_amp.wav,orch,2,3.61048389999996,1,4,145,165,33,17,2,2,3,5.17509062666667,57.6386457416667,3628.8194877
4,11,8,NoFlickerHalf,17,1162_half_length.avi,orch1_half_length.wav,orch,2,8.09124459999975,0,4,145,165,33,17,4,8,2,5.17509062666667,57.6386457416667,3634.0110555
4,12,8,NoFlickerHalf,47,1292_half_length.avi,acoustic28_half_length.wav,acoustic,3,4.40153640000017,0,4,23,47,175,133,2,15,1,5.17509062666667,57.6386457416667,3644.7191241
4,13,8,NoFlickerHalf,19,1247_half_length.avi,choir38_half_length.wav,choir,2,3.67800440000019,1,4,181,19,38,139,2,13,3,5.17509062666667,57.6386457416667,3651.5855948
4,14,8,NoFlickerHalf,33,1136_half_length.avi,orch38_half_length.wav,orch,2,5.16093490000003,0,4,33,145,17,165,1,1,2,5.17509062666667,57.6386457416667,3657.1104295
4,15,8,NoFlickerHalf,31,1404_half_length.avi,dar8_half_length.wav,dar,4,1.8590565999998,1,4,187,103,56,31,4,11,3,5.17509062666667,57.6386457416667,3664.1603052
4,16,8,NoFlickerFull,175,1103_half_amp.avi,acoustic10_half_amp.wav,acoustic,2,3.41088370000034,1,4,23,175,133,47,2,6,3,5.17509062666667,57.6386457416667,3668.5685037
4,1,9,NoFlickerFull,107,1265_half_amp.avi,acoustic16_half_amp.wav,acoustic,3,7.31040940000003,0,4,4,9,96,107,4,16,2,4.95513136666667,57.6386457416667,3858.4803411
4,2,9,NoFlickerHalf,43,1141_half_length.avi,dar13_half_length.wav,dar,1,1.86386360000006,1,4,43,116,45,126,1,14,4,4.95513136666667,57.6386457416667,3867.854851
4,3,9,NoFlickerFull,116,1420_half_amp.avi,dar18_half_amp.wav,dar,3,5.55899690000024,1,4,43,126,116,45,3,10,1,4.95513136666667,57.6386457416667,3872.6964599
4,4,9,NoFlickerHalf,62,1058_half_length.avi,choir19_half_length.wav,choir,2,5.15938200000028,1,4,12,62,182,98,2,3,1,4.95513136666667,57.6386457416667,3880.8795281
4,5,9,NoFlickerFull,174,1119_half_amp.avi,orch45_half_amp.wav,orch,3,7.60809770000014,0,4,74,174,110,91,2,5,1,4.95513136666667,57.6386457416667,3888.6047654
4,6,9,NoFlickerFull,126,1298_half_amp.avi,dar9_half_amp.wav,dar,2,3.82325390000005,1,4,45,126,116,43,2,9,3,4.95513136666667,57.6386457416667,3899.5875711
4,7,9,NoFlickerHalf,4,1167_half_length.avi,acoustic37_half_length.wav,acoustic,1,2.43386050000026,0,4,9,4,96,107,2,8,2,4.95513136666667,57.6386457416667,3905.3372689
4,8,9,NoFlickerFull,182,1277_half_amp.avi,choir39_half_amp.wav,choir,2,7.22817780000014,0,4,12,98,182,62,3,4,2,4.95513136666667,57.6386457416667,3911.1706037
4,9,9,NoFlickerFull,98,1014_half_amp.avi,choir41_half_amp.wav,choir,3,3.34053799999992,0,4,98,12,182,62,1,7,3,4.95513136666667,57.6386457416667,3921.7700737
4,10,9,NoFlickerFull,110,1443_half_amp.avi,orch3_half_amp.wav,orch,1,4.7579639999999,1,4,110,91,74,174,1,2,2,4.95513136666667,57.6386457416667,3927.2615133
4,11,9,NoFlickerHalf,91,1340_half_length.avi,orch46_half_length.wav,orch,4,4.22289249999994,1,4,74,174,110,91,4,13,1,4.95513136666667,57.6386457416667,3935.4447194
4,12,9,NoFlickerFull,96,1027_half_amp.avi,acoustic40_half_amp.wav,acoustic,4,3.90069220000032,0,4,4,107,96,9,3,11,2,4.95513136666667,57.6386457416667,3941.5945537
4,13,9,NoFlickerHalf,12,1077_half_length.avi,choir18_half_length.wav,choir,3,3.79880890000004,0,4,62,12,98,182,2,15,2,4.95513136666667,57.6386457416667,3947.9360624
4,14,9,NoFlickerHalf,74,1337_half_length.avi,orch24_half_length.wav,orch,2,5.27947810000023,0,4,91,110,174,74,4,1,2,4.95513136666667,57.6386457416667,3953.3359358
4,15,9,NoFlickerHalf,45,1203_half_length.avi,dar2_half_length.wav,dar,3,2.03448400000025,1,4,126,116,45,43,3,12,2,4.95513136666667,57.6386457416667,3960.3440664
4,16,9,NoFlickerHalf,9,1054_half_length.avi,acoustic44_half_length.wav,acoustic,2,5.08989789999987,0,4,96,107,9,4,3,6,3,4.95513136666667,57.6386457416667,3964.4357301
4,1,10,SyncTheta,106,1113_4Hz.avi,ep29_zero_4Hz.wav,ep,4,3.62748509999983,1,4,189,6,123,106,4,13,2,4.67352096333333,57.6386457416667,4131.4479214
4,2,10,AsyncTheta,186,1031_4Hz.avi,synth7_oneeighty_4Hz.wav,synth,2,3.75090050000017,0,4,128,61,186,54,3,14,3,4.67352096333333,57.6386457416667,4138.0060453
4,3,10,AsyncTheta,128,1269_4Hz.avi,synth14_oneeighty_4Hz.wav,synth,1,3.51420330000019,1,4,128,61,186,54,1,3,1,4.67352096333333,57.6386457416667,4143.7561313
4,4,10,SyncTheta,15,1422_4Hz.avi,guitar37_zero_4Hz.wav,guitar,4,6.07421849999992,1,4,53,170,115,15,4,11,1,4.67352096333333,57.6386457416667,4150.5309486
4,5,10,AsyncTheta,153,1157_4Hz.avi,willow1_oneeighty_4Hz.wav,willow,2,7.61151960000007,1,4,75,153,92,156,2,7,3,4.67352096333333,57.6386457416667,4159.4390436
4,6,10,SyncTheta,54,1181_4Hz.avi,synth12_zero_4Hz.wav,synth,2,3.85693609999998,1,4,61,54,128,186,2,2,1,4.67352096333333,57.6386457416667,4169.6052795
4,7,10,AsyncTheta,189,1051_4Hz.avi,ep14_oneeighty_4Hz.wav,ep,3,5.43235249999998,1,4,123,106,189,6,3,6,1,4.67352096333333,57.6386457416667,4176.5468231
4,8,10,AsyncTheta,170,1062_4Hz.avi,guitar3_oneeighty_4Hz.wav,guitar,2,4.02987419999954,0,4,15,115,53,170,4,12,2,4.67352096333333,57.6386457416667,4185.413136
4,9,10,AsyncTheta,115,1370_4Hz.avi,guitar9_oneeighty_4Hz.wav,guitar,4,3.76056869999957,0,4,115,15,170,53,1,15,1,4.67352096333333,57.6386457416667,4192.5965167
4,10,10,AsyncTheta,156,1060_4Hz.avi,willow7_oneeighty_4Hz.wav,willow,1,5.96033940000052,0,4,75,156,92,153,2,5,2,4.67352096333333,57.6386457416667,4198.5461066
4,11,10,SyncTheta,75,1040_4Hz.avi,willow17_zero_4Hz.wav,willow,4,5.04117599999972,0,4,75,92,153,156,1,9,2,4.67352096333333,57.6386457416667,4207.3544475
4,12,10,SyncTheta,6,1007_4Hz.avi,ep8_zero_4Hz.wav,ep,1,3.40619969999989,0,4,189,6,106,123,2,8,2,4.67352096333333,57.6386457416667,4214.120744
4,13,10,SyncTheta,53,1197_4Hz.avi,guitar46_zero_4Hz.wav,guitar,3,7.54830170000059,0,4,15,53,170,115,2,16,2,4.67352096333333,57.6386457416667,4220.9872502
4,14,10,SyncTheta,92,1030_4Hz.avi,willow23_zero_4Hz.wav,willow,2,3.55306329999985,1,4,156,92,75,153,2,4,2,4.67352096333333,57.6386457416667,4230.6370073
4,15,10,SyncTheta,61,1207_4Hz.avi,synth46_zero_4Hz.wav,synth,2,6.57933140000023,0,4,54,128,186,61,4,10,2,4.67352096333333,57.6386457416667,4237.3619987
4,16,10,AsyncTheta,123,1067_4Hz.avi,ep37_oneeighty_4Hz.wav,ep,4,3.53668170000037,0,4,123,106,189,6,1,1,2,4.67352096333333,57.6386457416667,4246.636487
4,1,11,AsyncTheta,180,1006_4Hz.avi,ep4_oneeighty_4Hz.wav,ep,2,5.83737769999971,0,4,180,25,65,117,1,16,2,5.14632958333333,57.6386457416667,4436.0315559
4,2,11,SyncTheta,109,1299_4Hz.avi,synth18_zero_4Hz.wav,synth,4,5.66994799999975,1,4,125,70,135,109,4,10,3,5.14632958333333,57.6386457416667,4443.8148271
4,3,11,AsyncTheta,135,1154_4Hz.avi,synth38_oneeighty_4Hz.wav,synth,4,7.45188629999939,0,4,125,135,70,109,2,5,3,5.14632958333333,57.6386457416667,4451.8480544
4,4,11,AsyncTheta,179,1186_4Hz.avi,guitar30_oneeighty_4Hz.wav,guitar,4,7.10771429999932,1,4,3,93,161,179,4,4,2,5.14632958333333,57.6386457416667,4462.3391441
4,5,11,SyncTheta,55,1044_4Hz.avi,willow4_zero_4Hz.wav,willow,3,6.00328010000067,1,4,157,22,55,178,3,13,3,5.14632958333333,57.6386457416667,4472.7641717
4,6,11,SyncTheta,70,1093_4Hz.avi,synth6_zero_4Hz.wav,synth,3,6.46571380000023,1,4,109,125,70,135,3,1,2,5.14632958333333,57.6386457416667,4480.5556365
4,7,11,SyncTheta,65,1013_4Hz.avi,ep22_zero_4Hz.wav,ep,3,3.35495700000047,1,4,117,25,65,180,3,11,1,5.14632958333333,57.6386457416667,4489.1301058
4,8,11,AsyncTheta,161,1433_4Hz.avi,guitar2_oneeighty_4Hz.wav,guitar,3,4.92708010000024,0,4,93,179,3,161,4,6,2,5.14632958333333,57.6386457416667,4495.7632071
4,9,11,SyncTheta,3,1156_4Hz.avi,guitar31_zero_4Hz.wav,guitar,2,6.51960999999937,0,4,93,179,3,161,3,8,1,5.14632958333333,57.6386457416667,4503.1550359
4,10,11,SyncTheta,22,1212_4Hz.avi,willow20_zero_4Hz.wav,willow,2,3.32017910000013,1,4,178,22,157,55,2,9,2,5.14632958333333,57.6386457416667,4511.4712701
4,11,11,AsyncTheta,178,1057_4Hz.avi,willow9_oneeighty_4Hz.wav,willow,1,3.85705039999993,0,4,157,22,178,55,3,14,2,5.14632958333333,57.6386457416667,4517.8296444
4,12,11,SyncTheta,25,1094_4Hz.avi,ep15_zero_4Hz.wav,ep,1,5.93849239999963,0,4,180,65,117,25,4,12,2,5.14632958333333,57.6386457416667,4524.3458443
4,13,11,SyncTheta,93,1046_4Hz.avi,guitar18_zero_4Hz.wav,guitar,2,3.94855189999998,1,4,179,93,3,161,2,15,1,5.14632958333333,57.6386457416667,4533.1956784
4,14,11,AsyncTheta,157,1225_4Hz.avi,willow14_oneeighty_4Hz.wav,willow,4,6.90330880000056,0,4,157,178,22,55,1,3,1,5.14632958333333,57.6386457416667,4539.895409
4,15,11,AsyncTheta,125,1050_4Hz.avi,synth36_oneeighty_4Hz.wav,synth,3,3.66126010000062,0,4,125,70,135,109,1,7,2,5.14632958333333,57.6386457416667,4549.4704815
4,16,11,AsyncTheta,117,1144_4Hz.avi,ep39_oneeighty_4Hz.wav,ep,1,3.47388260000025,1,4,117,180,65,25,1,2,2,5.14632958333333,57.6386457416667,4555.7283885
4,1,12,NoFlickerFull,169,1083_half_amp.avi,acoustic43_half_amp.wav,acoustic,2,3.43475829999988,1,4,39,169,60,113,2,14,4,4.199001535,57.6386457416667,4704.5829651
4,2,12,NoFlickerFull,136,1175_half_amp.avi,dar4_half_amp.wav,dar,2,8.05624669999997,0,4,2,154,80,136,4,10,2,4.199001535,57.6386457416667,4709.8579277
4,3,12,NoFlickerHalf,80,1082_half_length.avi,dar15_half_length.wav,dar,1,4.7403817000004,0,4,2,154,136,80,4,3,2,4.199001535,57.6386457416667,4719.6743897
4,4,12,NoFlickerHalf,72,1097_half_length.avi,choir29_half_length.wav,choir,4,5.6032839999998,1,4,160,13,124,72,4,2,2,4.199001535,57.6386457416667,4726.8407219
4,5,12,NoFlickerHalf,85,1383_half_length.avi,orch23_half_length.wav,orch,2,4.08903239999927,0,4,85,81,143,192,1,11,3,4.199001535,57.6386457416667,4734.1653861
4,6,12,NoFlickerFull,154,1074_half_amp.avi,dar5_half_amp.wav,dar,2,4.26249910000024,1,4,136,154,2,80,2,1,3,4.199001535,57.6386457416667,4740.3902995
4,7,12,NoFlickerFull,113,1037_half_amp.avi,acoustic23_half_amp.wav,acoustic,3,4.16788480000014,1,4,60,169,113,39,3,7,3,4.199001535,57.6386457416667,4747.9817192
4,8,12,NoFlickerHalf,13,1201_half_length.avi,choir7_half_length.wav,choir,3,2.8214566000006,1,4,124,160,13,72,3,13,2,4.199001535,57.6386457416667,4754.0564913
4,9,12,NoFlickerFull,160,1421_half_amp.avi,choir13_half_amp.wav,choir,1,4.7249297999997,1,4,160,72,124,13,1,15,1,4.199001535,57.6386457416667,4759.0566319
4,10,12,NoFlickerFull,192,1231_half_amp.avi,orch32_half_amp.wav,orch,1,5.40064729999995,1,4,192,143,81,85,1,8,3,4.199001535,57.6386457416667,4765.5314729
4,11,12,NoFlickerFull,143,1127_half_amp.avi,orch11_half_amp.wav,orch,4,3.43793829999959,1,4,85,192,81,143,4,12,3,4.199001535,57.6386457416667,4774.4812326
4,12,12,NoFlickerHalf,60,1249_half_length.avi,acoustic20_half_length.wav,acoustic,2,4.74980260000029,0,4,60,39,169,113,1,9,1,4.199001535,57.6386457416667,4780.5308245
4,13,12,NoFlickerFull,124,1183_half_amp.avi,choir24_half_amp.wav,choir,2,3.68408540000019,1,4,13,124,72,160,2,16,2,4.199001535,57.6386457416667,4787.5639812
4,14,12,NoFlickerHalf,81,1444_half_length.avi,orch4_half_length.wav,orch,1,5.31135479999921,1,4,81,192,143,85,1,5,3,4.199001535,57.6386457416667,4793.7805144
4,15,12,NoFlickerHalf,2,1431_half_length.avi,dar24_half_length.wav,dar,2,2.93490110000039,0,4,2,80,154,136,1,6,2,4.199001535,57.6386457416667,4801.4472073
4,16,12,NoFlickerHalf,39,1061_half_length.avi,acoustic11_half_length.wav,acoustic,2,3.48498319999999,0,4,39,60,113,169,1,4,1,4.199001535,57.6386457416667,4807.9134974
