ParticipantID,TrialNumber,BlockNumber,Condition,ClipID,VideoFile,SoundFile,SoundCategory,Response,RT,Accuracy,ConditionID,Frame1,Frame2,Frame3,Frame4,CorrectKey,EncodingPosition,Rating,BlockDuration,ExperimentDuration,MemoryTestOnset
14,1,1,NoFlickerFull,114,1322_half_amp.avi,dar14_half_amp.wav,dar,1,3.53633189999982,0,14,64,147,114,40,3,7,4,12.5674331166667,62.0939416216667,6324.1153689
14,2,1,NoFlickerHalf,64,1098_half_length.avi,dar11_half_length.wav,dar,3,6.86856160000025,0,14,64,114,40,147,1,3,2,12.5674331166667,62.0939416216667,6329.9404931
14,3,1,NoFlickerFull,79,1071_half_amp.avi,acoustic17_half_amp.wav,acoustic,4,6.26852229999986,0,14,20,5,79,105,3,12,3,12.5674331166667,62.0939416216667,6339.4326376
14,4,1,NoFlickerHalf,40,1239_half_length.avi,dar6_half_length.wav,dar,3,3.19059250000009,0,14,40,64,147,114,1,2,3,12.5674331166667,62.0939416216667,6348.074261
14,5,1,NoFlickerHalf,52,1387_half_length.avi,choir2_half_length.wav,choir,1,2.7846481000006,1,14,52,97,121,63,1,14,1,12.5674331166667,62.0939416216667,6354.7995433
14,6,1,NoFlickerHalf,5,1381_half_length.avi,acoustic1_half_length.wav,acoustic,3,3.35281169999962,0,14,105,79,20,5,4,15,1,12.5674331166667,62.0939416216667,6361.0163189
14,7,1,NoFlickerFull,105,1003_half_amp.avi,acoustic6_half_amp.wav,acoustic,4,5.44472440000027,0,14,20,105,79,5,2,9,1,12.5674331166667,62.0939416216667,6366.1244759
14,8,1,NoFlickerHalf,63,1128_half_length.avi,choir26_half_length.wav,choir,3,3.42576379999991,0,14,97,52,121,63,4,4,4,12.5674331166667,62.0939416216667,6373.7330571
14,9,1,NoFlickerFull,97,1368_half_amp.avi,choir30_half_amp.wav,choir,2,2.39207260000057,1,14,52,97,121,63,2,16,5,12.5674331166667,62.0939416216667,6379.8664757
14,10,1,NoFlickerFull,158,1206_half_amp.avi,orch6_half_amp.wav,orch,2,2.93582210000022,1,14,28,158,188,102,2,8,1,12.5674331166667,62.0939416216667,6384.099881
14,11,1,NoFlickerFull,147,1304_half_amp.avi,dar10_half_amp.wav,dar,4,4.89743679999992,0,14,64,147,114,40,2,11,3,12.5674331166667,62.0939416216667,6389.7166344
14,12,1,NoFlickerHalf,20,1236_half_length.avi,acoustic25_half_length.wav,acoustic,4,3.11331700000028,0,14,79,105,20,5,3,5,5,12.5674331166667,62.0939416216667,6397.8667606
14,13,1,NoFlickerHalf,28,1148_half_length.avi,orch19_half_length.wav,orch,1,2.9473539999999,1,14,28,188,102,158,1,6,1,12.5674331166667,62.0939416216667,6404.2418744
14,14,1,NoFlickerHalf,102,1012_half_length.avi,orch18_half_length.wav,orch,4,3.68967690000045,0,14,28,102,158,188,2,1,5,12.5674331166667,62.0939416216667,6409.0751642
14,15,1,NoFlickerFull,121,1354_half_amp.avi,choir22_half_amp.wav,choir,1,4.06900330000008,0,14,63,97,121,52,3,10,1,12.5674331166667,62.0939416216667,6414.5420407
14,16,1,NoFlickerFull,188,1036_half_amp.avi,orch26_half_amp.wav,orch,1,3.72383200000058,0,14,102,188,158,28,2,13,4,12.5674331166667,62.0939416216667,6421.6253644
14,1,2,SyncTheta,8,1252_4Hz.avi,synth25_zero_4Hz.wav,synth,3,3.46281289999934,1,14,155,71,8,127,3,9,4,5.90415817666667,62.0939416216667,6669.8906807
14,2,2,AsyncTheta,127,1411_4Hz.avi,synth28_oneeighty_4Hz.wav,synth,3,4.83234110000012,1,14,71,155,127,8,3,2,1,5.90415817666667,62.0939416216667,6675.2987385
14,3,2,AsyncTheta,176,1405_4Hz.avi,ep46_oneeighty_4Hz.wav,ep,3,3.28428099999928,0,14,176,150,87,41,1,11,1,5.90415817666667,62.0939416216667,6682.9985383
14,4,2,SyncTheta,71,1076_4Hz.avi,synth21_zero_4Hz.wav,synth,2,4.90026120000039,0,14,155,127,71,8,3,1,1,5.90415817666667,62.0939416216667,6688.231565
14,5,2,AsyncTheta,185,1131_4Hz.avi,guitar45_oneeighty_4Hz.wav,guitar,2,4.33321530000012,0,14,59,112,67,185,4,15,1,5.90415817666667,62.0939416216667,6694.8982621
14,6,2,SyncTheta,87,1142_4Hz.avi,ep3_zero_4Hz.wav,ep,3,3.06540760000007,0,14,87,150,41,176,1,14,2,5.90415817666667,62.0939416216667,6702.4814053
14,7,2,AsyncTheta,150,1394_4Hz.avi,ep11_oneeighty_4Hz.wav,ep,4,3.7008778999998,1,14,176,87,41,150,4,10,1,5.90415817666667,62.0939416216667,6707.2313172
14,8,2,SyncTheta,59,1346_4Hz.avi,guitar33_zero_4Hz.wav,guitar,4,4.05398460000015,0,14,59,112,185,67,1,3,1,5.90415817666667,62.0939416216667,6713.4811402
14,9,2,AsyncTheta,112,1388_4Hz.avi,guitar39_oneeighty_4Hz.wav,guitar,1,5.82370660000015,0,14,67,112,185,59,2,16,1,5.90415817666667,62.0939416216667,6719.5393223
14,10,2,AsyncTheta,171,1280_4Hz.avi,willow19_oneeighty_4Hz.wav,willow,2,7.01529719999962,0,14,171,37,152,32,1,6,3,5.90415817666667,62.0939416216667,6727.0557273
14,11,2,AsyncTheta,155,1042_4Hz.avi,synth10_oneeighty_4Hz.wav,synth,3,6.95259150000038,0,14,155,71,8,127,1,12,1,5.90415817666667,62.0939416216667,6736.1806152
14,12,2,SyncTheta,41,1132_4Hz.avi,ep10_zero_4Hz.wav,ep,4,4.69212360000074,1,14,150,87,176,41,4,7,3,5.90415817666667,62.0939416216667,6746.0386954
14,13,2,SyncTheta,32,1360_4Hz.avi,willow10_zero_4Hz.wav,willow,1,4.0471837999994,0,14,152,32,171,37,2,5,1,5.90415817666667,62.0939416216667,6752.4302893
14,14,2,SyncTheta,37,1237_4Hz.avi,willow15_zero_4Hz.wav,willow,2,5.28881869999987,1,14,171,37,152,32,2,4,3,5.90415817666667,62.0939416216667,6758.9716322
14,15,2,SyncTheta,67,1310_4Hz.avi,guitar21_zero_4Hz.wav,guitar,2,5.15341760000047,0,14,185,59,112,67,4,8,1,5.90415817666667,62.0939416216667,6767.3215364
14,16,2,AsyncTheta,152,1445_4Hz.avi,willow2_oneeighty_4Hz.wav,willow,4,4.88526559999991,0,14,152,171,37,32,1,13,2,5.90415817666667,62.0939416216667,6774.9296891
14,1,3,SyncTheta,95,1359_4Hz.avi,synth33_zero_4Hz.wav,synth,2,4.34712469999977,1,14,184,95,129,100,2,13,1,4.55724350166667,62.0939416216667,6940.7590584
14,2,3,SyncTheta,100,1107_4Hz.avi,synth23_zero_4Hz.wav,synth,4,4.23257910000029,1,14,95,129,184,100,4,6,1,4.55724350166667,62.0939416216667,6947.0589105
14,3,3,AsyncTheta,177,1283_4Hz.avi,ep38_oneeighty_4Hz.wav,ep,1,3.4955372000004,1,14,177,144,24,16,1,7,3,4.55724350166667,62.0939416216667,6954.808633
14,4,3,AsyncTheta,184,1052_4Hz.avi,synth40_oneeighty_4Hz.wav,synth,2,4.75367180000012,1,14,95,184,129,100,2,5,2,4.55724350166667,62.0939416216667,6960.1336051
14,5,3,SyncTheta,77,1008_4Hz.avi,guitar42_zero_4Hz.wav,guitar,1,5.79681669999991,0,14,46,77,151,183,2,10,3,4.55724350166667,62.0939416216667,6967.1334097
14,6,3,SyncTheta,24,1217_4Hz.avi,ep44_zero_4Hz.wav,ep,3,6.08039260000078,0,14,24,144,16,177,1,8,3,4.55724350166667,62.0939416216667,6976.5498837
14,7,3,SyncTheta,16,1442_4Hz.avi,ep34_zero_4Hz.wav,ep,4,3.65938480000023,0,14,177,24,16,144,3,4,1,4.55724350166667,62.0939416216667,6986.0912824
14,8,3,SyncTheta,46,1210_4Hz.avi,guitar48_zero_4Hz.wav,guitar,4,3.68261530000018,0,14,151,46,77,183,2,2,2,4.55724350166667,62.0939416216667,6992.8911504
14,9,3,AsyncTheta,151,1259_4Hz.avi,guitar43_oneeighty_4Hz.wav,guitar,1,3.3767143999994,1,14,151,77,46,183,1,16,1,4.55724350166667,62.0939416216667,6998.5909061
14,10,3,AsyncTheta,167,1177_4Hz.avi,willow24_oneeighty_4Hz.wav,willow,1,3.84573999999975,0,14,118,27,66,167,4,12,2,4.55724350166667,62.0939416216667,7004.0075377
14,11,3,AsyncTheta,129,1286_4Hz.avi,synth30_oneeighty_4Hz.wav,synth,4,3.18633229999978,1,14,100,184,95,129,4,15,4,4.55724350166667,62.0939416216667,7011.2823906
14,12,3,AsyncTheta,144,1255_4Hz.avi,ep28_oneeighty_4Hz.wav,ep,1,3.15272249999998,0,14,177,16,144,24,3,1,3,4.55724350166667,62.0939416216667,7016.9238927
14,13,3,SyncTheta,66,1215_4Hz.avi,willow18_zero_4Hz.wav,willow,2,3.34200859999964,0,14,118,27,66,167,3,11,4,4.55724350166667,62.0939416216667,7023.2154153
14,14,3,AsyncTheta,118,1020_4Hz.avi,willow22_oneeighty_4Hz.wav,willow,2,5.98505089999981,0,14,167,66,118,27,3,9,1,4.55724350166667,62.0939416216667,7029.4569572
14,15,3,AsyncTheta,183,1374_4Hz.avi,guitar16_oneeighty_4Hz.wav,guitar,4,6.92087850000007,0,14,151,46,183,77,3,3,1,4.55724350166667,62.0939416216667,7037.3902338
14,16,3,SyncTheta,27,1202_4Hz.avi,willow16_zero_4Hz.wav,willow,2,6.7040364000004,1,14,167,27,118,66,2,14,1,4.55724350166667,62.0939416216667,7046.7398545
14,1,4,NoFlickerFull,82,1449_half_amp.avi,dar17_half_amp.wav,dar,4,4.97868220000055,1,14,49,29,162,82,4,11,2,4.14971933166667,62.0939416216667,7197.0196797
14,2,4,NoFlickerHalf,29,1158_half_length.avi,dar23_half_length.wav,dar,4,3.40469279999979,0,14,162,82,29,49,3,8,2,4.14971933166667,62.0939416216667,7204.9778439
14,3,4,NoFlickerFull,104,1111_half_amp.avi,acoustic31_half_amp.wav,acoustic,1,4.57567539999945,0,14,1,104,58,83,2,10,3,4.14971933166667,62.0939416216667,7211.5609621
14,4,4,NoFlickerHalf,49,1221_half_length.avi,dar21_half_length.wav,dar,1,6.49968309999986,1,14,49,82,162,29,1,3,1,4.14971933166667,62.0939416216667,7219.2023288
14,5,4,NoFlickerHalf,10,1179_half_length.avi,choir4_half_length.wav,choir,2,2.99871509999957,1,14,11,10,76,88,2,13,1,4.14971933166667,62.0939416216667,7228.5189018
14,6,4,NoFlickerHalf,1,1064_half_length.avi,acoustic12_half_length.wav,acoustic,1,4.5849204999995,0,14,104,1,58,83,2,14,3,4.14971933166667,62.0939416216667,7234.49376
14,7,4,NoFlickerHalf,58,1323_half_length.avi,acoustic29_half_length.wav,acoustic,3,4.52250939999976,1,14,1,104,58,83,3,2,4,4.14971933166667,62.0939416216667,7242.4186038
14,8,4,NoFlickerFull,88,1191_half_amp.avi,choir20_half_amp.wav,choir,2,6.8521912999995,1,14,76,88,10,11,2,5,2,4.14971933166667,62.0939416216667,7248.8267818
14,9,4,NoFlickerFull,76,1293_half_amp.avi,choir23_half_amp.wav,choir,1,3.32540830000016,0,14,88,76,10,11,2,15,1,4.14971933166667,62.0939416216667,7257.7682224
14,10,4,NoFlickerHalf,57,1309_half_length.avi,orch7_half_length.wav,orch,4,3.3101087999994,1,14,137,42,134,57,4,7,5,4.14971933166667,62.0939416216667,7263.518243
14,11,4,NoFlickerFull,162,1358_half_amp.avi,dar7_half_amp.wav,dar,3,3.13517749999937,1,14,82,49,162,29,3,16,3,4.14971933166667,62.0939416216667,7270.0847694
14,12,4,NoFlickerFull,83,1139_half_amp.avi,acoustic27_half_amp.wav,acoustic,3,5.31687269999929,0,14,83,104,58,1,1,1,3,4.14971933166667,62.0939416216667,7276.592776
14,13,4,NoFlickerHalf,42,1339_half_length.avi,orch31_half_length.wav,orch,4,3.71482250000008,0,14,57,42,137,134,2,6,1,4.14971933166667,62.0939416216667,7285.009289
14,14,4,NoFlickerFull,134,1026_half_amp.avi,orch16_half_amp.wav,orch,3,2.45678599999974,1,14,137,42,134,57,3,4,5,4.14971933166667,62.0939416216667,7290.5008159
14,15,4,NoFlickerHalf,11,1448_half_length.avi,choir36_half_length.wav,choir,2,2.15830929999993,0,14,88,76,11,10,3,9,3,4.14971933166667,62.0939416216667,7294.7673474
14,16,4,NoFlickerFull,137,1303_half_amp.avi,orch10_half_amp.wav,orch,2,4.00510969999959,1,14,42,137,134,57,2,12,3,4.14971933166667,62.0939416216667,7298.6255901
14,1,5,NoFlickerHalf,34,1319_half_length.avi,dar22_half_length.wav,dar,3,6.89468690000012,0,14,34,122,14,191,1,12,3,4.48070701833333,62.0939416216667,7468.5299313
14,2,5,NoFlickerHalf,14,1416_half_length.avi,dar1_half_length.wav,dar,3,4.79435019999983,0,14,191,14,122,34,2,11,3,4.48070701833333,62.0939416216667,7478.3380464
14,3,5,NoFlickerFull,148,1121_half_amp.avi,acoustic26_half_amp.wav,acoustic,4,4.91024939999988,1,14,190,21,44,148,4,7,5,4.48070701833333,62.0939416216667,7485.4295318
14,4,5,NoFlickerFull,191,1314_half_amp.avi,dar19_half_amp.wav,dar,2,4.80499789999976,1,14,34,191,122,14,2,6,4,4.48070701833333,62.0939416216667,7491.9210972
14,5,5,NoFlickerHalf,69,1216_half_length.avi,choir32_half_length.wav,choir,3,3.18248739999945,0,14,68,78,159,69,4,9,2,4.48070701833333,62.0939416216667,7499.6127591
14,6,5,NoFlickerHalf,44,1254_half_length.avi,acoustic48_half_length.wav,acoustic,4,3.59323109999968,1,14,21,148,190,44,4,8,4,4.48070701833333,62.0939416216667,7504.9874577
14,7,5,NoFlickerHalf,21,1112_half_length.avi,acoustic32_half_length.wav,acoustic,1,5.23808289999943,0,14,190,21,148,44,2,4,3,4.48070701833333,62.0939416216667,7511.4539794
14,8,5,NoFlickerHalf,68,1023_half_length.avi,choir3_half_length.wav,choir,3,3.53358690000005,0,14,68,159,78,69,1,3,1,4.48070701833333,62.0939416216667,7520.0619132
14,9,5,NoFlickerFull,159,1091_half_amp.avi,choir8_half_amp.wav,choir,3,3.1144948000001,1,14,69,78,159,68,3,16,1,4.48070701833333,62.0939416216667,7525.2119559
14,10,5,NoFlickerFull,142,1155_half_amp.avi,orch9_half_amp.wav,orch,3,4.8154411000005,1,14,30,36,142,141,3,13,1,4.48070701833333,62.0939416216667,7530.2035385
14,11,5,NoFlickerFull,122,1289_half_amp.avi,dar3_half_amp.wav,dar,1,3.20699740000055,0,14,14,191,34,122,4,14,3,4.48070701833333,62.0939416216667,7537.4950045
14,12,5,NoFlickerFull,190,1427_half_amp.avi,acoustic46_half_amp.wav,acoustic,1,6.23554730000069,0,14,21,190,44,148,2,2,2,4.48070701833333,62.0939416216667,7542.4365578
14,13,5,NoFlickerHalf,30,1016_half_length.avi,orch14_half_length.wav,orch,2,2.07509699999991,1,14,36,30,141,142,2,10,2,4.48070701833333,62.0939416216667,7550.6446958
14,14,5,NoFlickerHalf,36,1284_half_length.avi,orch29_half_length.wav,orch,3,4.31571520000034,1,14,141,142,36,30,3,1,3,4.48070701833333,62.0939416216667,7555.9947732
14,15,5,NoFlickerFull,78,1301_half_amp.avi,choir11_half_amp.wav,choir,4,3.51202319999993,0,14,78,159,68,69,1,5,4,4.48070701833333,62.0939416216667,7562.1027666
14,16,5,NoFlickerFull,141,1401_half_amp.avi,orch12_half_amp.wav,orch,4,3.30832850000024,1,14,30,142,36,141,4,15,4,4.48070701833333,62.0939416216667,7568.3859444
14,1,6,SyncTheta,50,1049_4Hz.avi,synth43_zero_4Hz.wav,synth,1,3.01179969999976,0,14,89,50,163,140,2,9,2,4.31709079333333,62.0939416216667,7727.148929
14,2,6,AsyncTheta,140,1270_4Hz.avi,synth17_oneeighty_4Hz.wav,synth,1,3.67884310000045,1,14,140,163,89,50,1,5,2,4.31709079333333,62.0939416216667,7733.398815
14,3,6,SyncTheta,26,1190_4Hz.avi,ep7_zero_4Hz.wav,ep,4,5.68029810000007,0,14,26,138,173,99,1,12,3,4.31709079333333,62.0939416216667,7739.4404634
14,4,6,SyncTheta,89,1393_4Hz.avi,synth41_zero_4Hz.wav,synth,4,4.19987860000037,1,14,163,140,50,89,4,2,2,4.31709079333333,62.0939416216667,7748.4401313
14,5,6,AsyncTheta,172,1350_4Hz.avi,guitar10_oneeighty_4Hz.wav,guitar,4,3.78377519999958,0,14,73,7,172,168,3,11,1,4.31709079333333,62.0939416216667,7755.2483038
14,6,6,AsyncTheta,173,1348_4Hz.avi,ep31_oneeighty_4Hz.wav,ep,4,3.40008699999998,1,14,138,99,26,173,4,14,2,4.31709079333333,62.0939416216667,7760.7730645
14,7,6,SyncTheta,99,1173_4Hz.avi,ep6_zero_4Hz.wav,ep,1,3.59604649999983,0,14,138,26,99,173,3,10,3,4.31709079333333,62.0939416216667,7766.7229633
14,8,6,AsyncTheta,168,1204_4Hz.avi,guitar36_oneeighty_4Hz.wav,guitar,4,5.22975289999977,0,14,7,168,172,73,2,4,1,4.31709079333333,62.0939416216667,7772.5478808
14,9,6,SyncTheta,7,1017_4Hz.avi,guitar47_zero_4Hz.wav,guitar,4,5.13410750000003,0,14,73,168,7,172,3,13,1,4.31709079333333,62.0939416216667,7780.5310565
14,10,6,SyncTheta,48,1021_4Hz.avi,willow12_zero_4Hz.wav,willow,1,5.22701580000012,1,14,48,130,108,120,1,7,3,4.31709079333333,62.0939416216667,7788.8309176
14,11,6,AsyncTheta,163,1441_4Hz.avi,synth27_oneeighty_4Hz.wav,synth,3,1.97633510000014,1,14,50,89,163,140,3,15,1,4.31709079333333,62.0939416216667,7796.8723461
14,12,6,AsyncTheta,138,1149_4Hz.avi,ep2_oneeighty_4Hz.wav,ep,3,3.0759822,1,14,173,99,138,26,3,3,3,4.31709079333333,62.0939416216667,7801.7889013
14,13,6,AsyncTheta,130,1081_4Hz.avi,willow5_oneeighty_4Hz.wav,willow,4,3.08162619999985,1,14,108,48,120,130,4,6,3,4.31709079333333,62.0939416216667,7807.7970828
14,14,6,SyncTheta,108,1415_4Hz.avi,willow3_zero_4Hz.wav,willow,3,2.79902709999988,1,14,120,48,108,130,3,1,2,4.31709079333333,62.0939416216667,7813.713595
14,15,6,SyncTheta,73,1369_4Hz.avi,guitar19_zero_4Hz.wav,guitar,2,3.68830419999995,0,14,172,168,73,7,3,8,1,4.31709079333333,62.0939416216667,7818.9801256
14,16,6,AsyncTheta,120,1365_4Hz.avi,willow21_oneeighty_4Hz.wav,willow,4,5.30752310000025,0,14,120,130,108,48,1,16,4,4.31709079333333,62.0939416216667,7825.6300028
14,1,7,SyncTheta,51,1331_4Hz.avi,synth47_zero_4Hz.wav,synth,4,6.94862360000025,1,14,111,35,131,51,4,8,3,4.443730885,62.0939416216667,7983.3680333
14,2,7,SyncTheta,35,1039_4Hz.avi,synth5_zero_4Hz.wav,synth,3,3.31234290000066,1,14,111,51,35,131,3,7,1,4.443730885,62.0939416216667,7992.5344644
14,3,7,SyncTheta,86,1278_4Hz.avi,ep35_zero_4Hz.wav,ep,2,4.35262770000008,1,14,132,86,166,101,2,10,3,4.443730885,62.0939416216667,7998.3926538
14,4,7,AsyncTheta,111,1390_4Hz.avi,synth3_oneeighty_4Hz.wav,synth,1,3.19650170000023,1,14,111,35,131,51,1,2,3,4.443730885,62.0939416216667,8005.2092126
14,5,7,AsyncTheta,146,1005_4Hz.avi,guitar14_oneeighty_4Hz.wav,guitar,2,4.40669369999978,0,14,90,164,146,84,3,13,1,4.443730885,62.0939416216667,8011.2840297
14,6,7,AsyncTheta,132,1356_4Hz.avi,ep30_oneeighty_4Hz.wav,ep,2,3.29774600000019,0,14,101,166,132,86,3,16,3,4.443730885,62.0939416216667,8018.2254536
14,7,7,SyncTheta,101,1295_4Hz.avi,ep40_zero_4Hz.wav,ep,2,4.24391700000069,1,14,132,101,166,86,2,3,2,4.443730885,62.0939416216667,8024.7837549
14,8,7,AsyncTheta,164,1087_4Hz.avi,guitar17_oneeighty_4Hz.wav,guitar,4,3.65479069999947,1,14,146,84,90,164,4,9,1,4.443730885,62.0939416216667,8032.2752503
14,9,7,SyncTheta,90,1273_4Hz.avi,guitar23_zero_4Hz.wav,guitar,2,5.40470539999933,0,14,146,84,164,90,4,14,1,4.443730885,62.0939416216667,8038.9250588
14,10,7,SyncTheta,94,1109_4Hz.avi,willow6_zero_4Hz.wav,willow,1,6.32439239999985,1,14,94,119,18,149,1,6,3,4.443730885,62.0939416216667,8046.8414871
14,11,7,AsyncTheta,131,1366_4Hz.avi,synth34_oneeighty_4Hz.wav,synth,2,4.79739169999993,1,14,35,131,51,111,2,15,1,4.443730885,62.0939416216667,8055.924732
14,12,7,AsyncTheta,166,1227_4Hz.avi,ep5_oneeighty_4Hz.wav,ep,4,4.04153459999998,1,14,86,101,132,166,4,1,2,4.443730885,62.0939416216667,8064.0327532
14,13,7,AsyncTheta,119,1189_4Hz.avi,willow11_oneeighty_4Hz.wav,willow,2,3.43730609999966,0,14,94,18,119,149,3,5,2,4.443730885,62.0939416216667,8069.8326834
14,14,7,SyncTheta,18,1101_4Hz.avi,willow13_zero_4Hz.wav,willow,3,5.36267459999999,0,14,18,119,94,149,1,4,1,4.443730885,62.0939416216667,8076.0992469
14,15,7,SyncTheta,84,1294_4Hz.avi,guitar6_zero_4Hz.wav,guitar,1,3.37108850000004,1,14,84,90,146,164,1,12,1,4.443730885,62.0939416216667,8084.6906963
14,16,7,AsyncTheta,149,1200_4Hz.avi,willow8_oneeighty_4Hz.wav,willow,1,6.29981150000003,0,14,119,94,149,18,3,11,1,4.443730885,62.0939416216667,8091.4988964
14,1,8,NoFlickerHalf,56,1063_half_length.avi,dar16_half_length.wav,dar,3,3.54344700000001,1,14,103,187,56,31,3,7,1,4.05634735666667,62.0939416216667,8242.8870359
14,2,8,NoFlickerFull,187,1164_half_amp.avi,dar12_half_amp.wav,dar,2,3.98983599999883,1,14,103,187,56,31,2,5,2,4.05634735666667,62.0939416216667,8248.8786003
14,3,8,NoFlickerHalf,47,1292_half_length.avi,acoustic28_half_length.wav,acoustic,3,3.27693250000084,1,14,23,133,47,175,3,9,1,4.05634735666667,62.0939416216667,8255.2117568
14,4,8,NoFlickerHalf,31,1404_half_length.avi,dar8_half_length.wav,dar,2,2.06006370000068,1,14,103,31,187,56,2,2,2,4.05634735666667,62.0939416216667,8261.7783085
14,5,8,NoFlickerHalf,38,1184_half_length.avi,choir33_half_length.wav,choir,3,5.9222135,1,14,181,19,38,139,3,14,2,4.05634735666667,62.0939416216667,8266.1865119
14,6,8,NoFlickerFull,133,1341_half_amp.avi,acoustic14_half_amp.wav,acoustic,4,3.59405470000092,0,14,47,23,133,175,3,16,3,4.05634735666667,62.0939416216667,8274.278046
14,7,8,NoFlickerFull,175,1103_half_amp.avi,acoustic10_half_amp.wav,acoustic,2,7.4792542999985,0,14,175,23,133,47,1,6,1,4.05634735666667,62.0939416216667,8280.5112198
14,8,8,NoFlickerFull,181,1168_half_amp.avi,choir1_half_amp.wav,choir,2,2.68132159999914,1,14,139,181,19,38,2,3,4,4.05634735666667,62.0939416216667,8290.1192862
14,9,8,NoFlickerFull,139,1192_half_amp.avi,choir5_half_amp.wav,choir,2,3.84079480000037,0,14,38,181,19,139,4,15,1,4.05634735666667,62.0939416216667,8294.5358829
14,10,8,NoFlickerFull,145,1352_half_amp.avi,orch39_half_amp.wav,orch,1,4.20592209999995,1,14,145,33,17,165,1,11,2,4.05634735666667,62.0939416216667,8300.2607291
14,11,8,NoFlickerFull,103,1084_half_amp.avi,dar20_half_amp.wav,dar,4,5.39179890000014,1,14,56,187,31,103,4,12,4,4.05634735666667,62.0939416216667,8306.2439428
14,12,8,NoFlickerHalf,23,1330_half_length.avi,acoustic47_half_length.wav,acoustic,4,3.03422339999997,0,14,175,133,23,47,3,1,2,4.05634735666667,62.0939416216667,8315.0937101
14,13,8,NoFlickerFull,165,1410_half_amp.avi,orch43_half_amp.wav,orch,1,3.55470749999949,0,14,33,145,17,165,4,10,2,4.05634735666667,62.0939416216667,8320.0019393
14,14,8,NoFlickerHalf,17,1162_half_length.avi,orch1_half_length.wav,orch,4,3.1361237000001,1,14,165,145,33,17,4,8,1,4.05634735666667,62.0939416216667,8327.0018049
14,15,8,NoFlickerHalf,19,1247_half_length.avi,choir38_half_length.wav,choir,1,2.15166709999903,1,14,19,139,38,181,1,4,4,4.05634735666667,62.0939416216667,8332.2849889
14,16,8,NoFlickerHalf,33,1136_half_length.avi,orch38_half_length.wav,orch,1,3.49796550000065,0,14,145,165,17,33,4,13,3,4.05634735666667,62.0939416216667,8337.9097829
14,1,9,NoFlickerHalf,45,1203_half_length.avi,dar2_half_length.wav,dar,1,2.39178600000014,1,14,45,43,126,116,1,12,3,4.16824234333333,62.0939416216667,8501.4562409
14,2,9,NoFlickerHalf,43,1141_half_length.avi,dar13_half_length.wav,dar,3,4.03809920000094,1,14,116,126,43,45,3,4,2,4.16824234333333,62.0939416216667,8507.3559522
14,3,9,NoFlickerFull,107,1265_half_amp.avi,acoustic16_half_amp.wav,acoustic,1,2.82963159999963,1,14,107,9,4,96,1,13,1,4.16824234333333,62.0939416216667,8514.6724562
14,4,9,NoFlickerFull,116,1420_half_amp.avi,dar18_half_amp.wav,dar,1,3.36956780000037,1,14,116,45,126,43,1,3,1,4.16824234333333,62.0939416216667,8520.0556559
14,5,9,NoFlickerFull,98,1014_half_amp.avi,choir41_half_amp.wav,choir,4,4.08375909999995,0,14,98,182,12,62,1,5,3,4.16824234333333,62.0939416216667,8526.5221786
14,6,9,NoFlickerHalf,9,1054_half_length.avi,acoustic44_half_length.wav,acoustic,2,4.68652830000065,0,14,4,96,9,107,3,16,3,4.16824234333333,62.0939416216667,8532.3887315
14,7,9,NoFlickerHalf,4,1167_half_length.avi,acoustic37_half_length.wav,acoustic,1,2.72721259999889,1,14,4,96,9,107,1,8,3,4.16824234333333,62.0939416216667,8538.9052174
14,8,9,NoFlickerFull,182,1277_half_amp.avi,choir39_half_amp.wav,choir,1,4.30699520000053,1,14,182,98,12,62,1,1,3,4.16824234333333,62.0939416216667,8543.7634535
14,9,9,NoFlickerHalf,62,1058_half_length.avi,choir19_half_length.wav,choir,2,3.58381860000009,0,14,12,98,182,62,4,14,1,4.16824234333333,62.0939416216667,8549.888299
14,10,9,NoFlickerHalf,91,1340_half_length.avi,orch46_half_length.wav,orch,1,2.73628950000057,0,14,74,174,91,110,3,10,2,4.16824234333333,62.0939416216667,8555.9214984
14,11,9,NoFlickerFull,126,1298_half_amp.avi,dar9_half_amp.wav,dar,3,2.93199629999981,1,14,116,43,126,45,3,15,4,4.16824234333333,62.0939416216667,8561.5380119
14,12,9,NoFlickerFull,96,1027_half_amp.avi,acoustic40_half_amp.wav,acoustic,3,3.12460160000046,0,14,4,96,9,107,2,6,1,4.16824234333333,62.0939416216667,8566.2462542
14,13,9,NoFlickerFull,110,1443_half_amp.avi,orch3_half_amp.wav,orch,4,3.4971501,1,14,174,74,91,110,4,9,5,4.16824234333333,62.0939416216667,8572.14611
14,14,9,NoFlickerHalf,74,1337_half_length.avi,orch24_half_length.wav,orch,3,3.53019200000017,1,14,110,174,74,91,3,7,1,4.16824234333333,62.0939416216667,8578.654293
14,15,9,NoFlickerHalf,12,1077_half_length.avi,choir18_half_length.wav,choir,3,2.85158149999916,1,14,62,98,12,182,3,2,1,4.16824234333333,62.0939416216667,8584.0793288
14,16,9,NoFlickerFull,174,1119_half_amp.avi,orch45_half_amp.wav,orch,2,1.83917949999886,1,14,74,174,110,91,2,11,5,4.16824234333333,62.0939416216667,8589.8957152
14,1,10,SyncTheta,54,1181_4Hz.avi,synth12_zero_4Hz.wav,synth,4,4.67825950000042,1,14,186,128,61,54,4,9,1,4.587111565,62.0939416216667,8746.3171391
14,2,10,AsyncTheta,186,1031_4Hz.avi,synth7_oneeighty_4Hz.wav,synth,1,7.66378290000102,1,14,186,61,54,128,1,7,4,4.587111565,62.0939416216667,8753.6502565
14,3,10,SyncTheta,6,1007_4Hz.avi,ep8_zero_4Hz.wav,ep,1,5.24186829999962,0,14,106,6,189,123,2,12,1,4.587111565,62.0939416216667,8763.5333241
14,4,10,AsyncTheta,128,1269_4Hz.avi,synth14_oneeighty_4Hz.wav,synth,3,3.37517880000087,1,14,54,61,128,186,3,1,4,4.587111565,62.0939416216667,8771.1748787
14,5,10,AsyncTheta,170,1062_4Hz.avi,guitar3_oneeighty_4Hz.wav,guitar,4,4.39748730000065,1,14,15,53,115,170,4,13,2,4.587111565,62.0939416216667,8776.299839
14,6,10,AsyncTheta,123,1067_4Hz.avi,ep37_oneeighty_4Hz.wav,ep,3,5.73576099999991,1,14,6,189,123,106,3,15,4,4.587111565,62.0939416216667,8783.99957
14,7,10,AsyncTheta,189,1051_4Hz.avi,ep14_oneeighty_4Hz.wav,ep,1,7.05592360000082,0,14,6,189,106,123,2,6,3,4.587111565,62.0939416216667,8792.4743785
14,8,10,AsyncTheta,115,1370_4Hz.avi,guitar9_oneeighty_4Hz.wav,guitar,1,4.17795990000013,0,14,53,115,15,170,2,3,1,4.587111565,62.0939416216667,8802.7574602
14,9,10,SyncTheta,15,1422_4Hz.avi,guitar37_zero_4Hz.wav,guitar,2,5.82094779999898,1,14,53,15,170,115,2,14,3,4.587111565,62.0939416216667,8810.5156353
14,10,10,SyncTheta,92,1030_4Hz.avi,willow23_zero_4Hz.wav,willow,3,7.46537720000015,0,14,153,75,156,92,4,8,1,4.587111565,62.0939416216667,8818.4321055
14,11,10,SyncTheta,61,1207_4Hz.avi,synth46_zero_4Hz.wav,synth,1,3.63222180000048,1,14,61,54,186,128,1,10,3,4.587111565,62.0939416216667,8828.4152108
14,12,10,SyncTheta,106,1113_4Hz.avi,ep29_zero_4Hz.wav,ep,4,5.21362450000015,1,14,6,189,123,106,4,4,2,4.587111565,62.0939416216667,8835.4484151
14,13,10,AsyncTheta,153,1157_4Hz.avi,willow1_oneeighty_4Hz.wav,willow,2,3.95409980000113,1,14,75,153,92,156,2,5,2,4.587111565,62.0939416216667,8844.2565198
14,14,10,SyncTheta,75,1040_4Hz.avi,willow17_zero_4Hz.wav,willow,4,3.5026885999996,1,14,92,153,156,75,4,2,3,4.587111565,62.0939416216667,8850.5647076
14,15,10,SyncTheta,53,1197_4Hz.avi,guitar46_zero_4Hz.wav,guitar,4,3.97622459999911,0,14,53,170,15,115,1,11,3,4.587111565,62.0939416216667,8856.6147036
14,16,10,AsyncTheta,156,1060_4Hz.avi,willow7_oneeighty_4Hz.wav,willow,4,3.29567429999952,0,14,75,156,153,92,2,16,4,4.587111565,62.0939416216667,8863.8976144
14,1,11,AsyncTheta,125,1050_4Hz.avi,synth36_oneeighty_4Hz.wav,synth,4,4.19466680000005,1,14,109,135,70,125,4,15,1,4.46593468,62.0939416216667,9017.1358648
14,2,11,AsyncTheta,135,1154_4Hz.avi,synth38_oneeighty_4Hz.wav,synth,1,5.74166330000116,0,14,70,109,135,125,3,14,2,4.46593468,62.0939416216667,9023.8690997
14,3,11,AsyncTheta,180,1006_4Hz.avi,ep4_oneeighty_4Hz.wav,ep,4,5.00754889999916,0,14,25,180,117,65,2,11,3,4.46593468,62.0939416216667,9033.0188541
14,4,11,SyncTheta,70,1093_4Hz.avi,synth6_zero_4Hz.wav,synth,4,3.72086920000038,1,14,109,135,125,70,4,5,3,4.46593468,62.0939416216667,9040.8270264
14,5,11,SyncTheta,3,1156_4Hz.avi,guitar31_zero_4Hz.wav,guitar,2,4.78532139999879,0,14,179,93,3,161,3,8,1,4.46593468,62.0939416216667,9047.8351944
14,6,11,SyncTheta,25,1094_4Hz.avi,ep15_zero_4Hz.wav,ep,1,3.76011019999896,0,14,65,117,180,25,4,13,3,4.46593468,62.0939416216667,9055.2516923
14,7,11,AsyncTheta,117,1144_4Hz.avi,ep39_oneeighty_4Hz.wav,ep,4,5.05407159999959,1,14,65,180,25,117,4,6,1,4.46593468,62.0939416216667,9060.7848975
14,8,11,SyncTheta,93,1046_4Hz.avi,guitar18_zero_4Hz.wav,guitar,3,5.13433289999921,0,14,3,161,179,93,4,2,1,4.46593468,62.0939416216667,9069.0096878
14,9,11,AsyncTheta,179,1186_4Hz.avi,guitar30_oneeighty_4Hz.wav,guitar,4,6.06391629999962,0,14,161,179,93,3,2,10,1,4.46593468,62.0939416216667,9077.392838
14,10,11,AsyncTheta,178,1057_4Hz.avi,willow9_oneeighty_4Hz.wav,willow,1,4.47691529999975,0,14,22,178,55,157,2,9,2,4.46593468,62.0939416216667,9086.9676311
14,11,11,SyncTheta,109,1299_4Hz.avi,synth18_zero_4Hz.wav,synth,3,3.44355420000102,1,14,70,135,109,125,3,16,3,4.46593468,62.0939416216667,9094.5340941
14,12,11,SyncTheta,65,1013_4Hz.avi,ep22_zero_4Hz.wav,ep,4,4.60432120000041,1,14,117,180,25,65,4,1,2,4.46593468,62.0939416216667,9101.4839409
14,13,11,AsyncTheta,157,1225_4Hz.avi,willow14_oneeighty_4Hz.wav,willow,2,4.81196219999947,1,14,55,157,22,178,2,7,1,4.46593468,62.0939416216667,9109.6088088
14,14,11,SyncTheta,55,1044_4Hz.avi,willow4_zero_4Hz.wav,willow,2,4.17692369999895,1,14,157,55,178,22,2,4,2,4.46593468,62.0939416216667,9116.2587645
14,15,11,AsyncTheta,161,1433_4Hz.avi,guitar2_oneeighty_4Hz.wav,guitar,2,4.64059799999995,0,14,161,93,179,3,1,3,2,4.46593468,62.0939416216667,9123.450103
14,16,11,SyncTheta,22,1212_4Hz.avi,willow20_zero_4Hz.wav,willow,2,4.14382300000034,0,14,157,178,22,55,3,12,2,4.46593468,62.0939416216667,9131.2499226
14,1,12,NoFlickerFull,154,1074_half_amp.avi,dar5_half_amp.wav,dar,1,4.25192470000002,1,14,154,136,80,2,1,10,3,3.946689525,62.0939416216667,9274.8551142
14,2,12,NoFlickerHalf,2,1431_half_length.avi,dar24_half_length.wav,dar,2,3.2353897999983,0,14,2,80,154,136,1,6,1,3.946689525,62.0939416216667,9280.8216334
14,3,12,NoFlickerHalf,39,1061_half_length.avi,acoustic11_half_length.wav,acoustic,1,2.62684100000115,1,14,39,169,113,60,1,11,2,3.946689525,62.0939416216667,9287.1463608
14,4,12,NoFlickerFull,136,1175_half_amp.avi,dar4_half_amp.wav,dar,4,4.14493179999954,1,14,2,80,154,136,4,4,5,3.946689525,62.0939416216667,9291.4795701
14,5,12,NoFlickerHalf,13,1201_half_length.avi,choir7_half_length.wav,choir,3,2.34095419999903,1,14,160,124,13,72,3,8,1,3.946689525,62.0939416216667,9297.3794366
14,6,12,NoFlickerFull,169,1083_half_amp.avi,acoustic43_half_amp.wav,acoustic,4,2.8922455999982,1,14,39,60,113,169,4,15,1,3.946689525,62.0939416216667,9301.8293334
14,7,12,NoFlickerFull,113,1037_half_amp.avi,acoustic23_half_amp.wav,acoustic,4,4.94174310000017,0,14,39,113,169,60,2,7,3,3.946689525,62.0939416216667,9307.27087
14,8,12,NoFlickerHalf,72,1097_half_length.avi,choir29_half_length.wav,choir,2,5.58469270000023,0,14,13,160,72,124,3,2,3,3.946689525,62.0939416216667,9314.553956
14,9,12,NoFlickerFull,124,1183_half_amp.avi,choir24_half_amp.wav,choir,4,4.29394039999897,1,14,72,160,13,124,4,14,1,3.946689525,62.0939416216667,9321.9120605
14,10,12,NoFlickerFull,192,1231_half_amp.avi,orch32_half_amp.wav,orch,4,5.72211620000053,1,14,81,143,85,192,4,12,5,3.946689525,62.0939416216667,9328.8785422
14,11,12,NoFlickerHalf,80,1082_half_length.avi,dar15_half_length.wav,dar,2,3.7879568999997,0,14,80,2,154,136,1,13,2,3.946689525,62.0939416216667,9336.6702208
14,12,12,NoFlickerHalf,60,1249_half_length.avi,acoustic20_half_length.wav,acoustic,3,2.77533519999997,1,14,169,113,60,39,3,3,2,3.946689525,62.0939416216667,9343.9867166
14,13,12,NoFlickerFull,143,1127_half_amp.avi,orch11_half_amp.wav,orch,4,4.15887979999934,1,14,85,81,192,143,4,9,3,3.946689525,62.0939416216667,9350.0200477
14,14,12,NoFlickerHalf,81,1444_half_length.avi,orch4_half_length.wav,orch,1,4.3597379999992,1,14,81,85,192,143,1,1,3,3.946689525,62.0939416216667,9357.1698846
14,15,12,NoFlickerFull,160,1421_half_amp.avi,choir13_half_amp.wav,choir,1,4.0110235000011,0,14,72,160,13,124,2,5,1,3.946689525,62.0939416216667,9363.4695829
14,16,12,NoFlickerHalf,85,1383_half_length.avi,orch23_half_length.wav,orch,1,3.0470394999993,1,14,85,81,143,192,1,16,3,3.946689525,62.0939416216667,9369.4194306
