ParticipantID,TrialNumber,BlockNumber,Condition,ClipID,VideoFile,SoundFile,SoundCategory,Response,RT,Accuracy,ConditionID,Frame1,Frame2,Frame3,Frame4,CorrectKey,EncodingPosition,Rating,BlockDuration,ExperimentDuration,MemoryTestOnset
1,1,1,SyncTheta,102,1012_4Hz.avi,orch18_zero_4Hz.wav,orch,3,7.63829889999943,0,1,102,188,158,28,1,1,4,11.8943344533333,72.86287403,8527.7902037
1,2,1,SyncTheta,5,1381_4Hz.avi,acoustic1_zero_4Hz.wav,acoustic,4,5.14183960000082,0,1,5,20,105,79,1,6,1,11.8943344533333,72.86287403,8539.1149845
1,3,1,SyncTheta,20,1236_4Hz.avi,acoustic25_zero_4Hz.wav,acoustic,1,5.63704529999995,1,1,20,5,79,105,1,2,3,11.8943344533333,72.86287403,8547.0813204
1,4,1,SyncTheta,40,1239_4Hz.avi,dar6_zero_4Hz.wav,dar,4,5.86506499999996,1,1,114,147,64,40,4,5,4,11.8943344533333,72.86287403,8557.6310986
1,5,1,AsyncTheta,121,1354_4Hz.avi,choir22_oneeighty_4Hz.wav,choir,3,5.76159849999931,1,1,97,63,121,52,3,16,2,11.8943344533333,72.86287403,8567.4557396
1,6,1,AsyncTheta,158,1206_4Hz.avi,orch6_oneeighty_4Hz.wav,orch,3,6.26317280000148,0,1,188,158,102,28,2,4,2,11.8943344533333,72.86287403,8575.5724301
1,7,1,AsyncTheta,188,1036_4Hz.avi,orch26_oneeighty_4Hz.wav,orch,4,7.26062079999974,0,1,28,188,102,158,2,11,1,11.8943344533333,72.86287403,8585.3051913
1,8,1,AsyncTheta,97,1368_4Hz.avi,choir30_oneeighty_4Hz.wav,choir,1,4.21081729999969,0,1,121,63,97,52,3,10,2,11.8943344533333,72.86287403,8597.154914
1,9,1,SyncTheta,52,1387_4Hz.avi,choir2_zero_4Hz.wav,choir,3,3.61621100000048,1,1,121,97,52,63,3,15,4,11.8943344533333,72.86287403,8604.4130381
1,10,1,SyncTheta,28,1148_4Hz.avi,orch19_zero_4Hz.wav,orch,2,4.60392619999948,1,1,188,28,158,102,2,3,2,11.8943344533333,72.86287403,8610.3964457
1,11,1,SyncTheta,63,1128_4Hz.avi,choir26_zero_4Hz.wav,choir,3,4.31697559999884,0,1,121,63,97,52,2,9,2,11.8943344533333,72.86287403,8618.7712016
1,12,1,AsyncTheta,147,1304_4Hz.avi,dar10_oneeighty_4Hz.wav,dar,2,4.17706839999846,0,1,147,114,40,64,1,8,3,11.8943344533333,72.86287403,8626.720982
1,13,1,AsyncTheta,79,1071_4Hz.avi,acoustic17_oneeighty_4Hz.wav,acoustic,2,2.90630130000136,1,1,20,79,105,5,2,12,3,11.8943344533333,72.86287403,8633.2122267
1,14,1,AsyncTheta,114,1322_4Hz.avi,dar14_oneeighty_4Hz.wav,dar,2,3.22788430000037,1,1,147,114,40,64,2,14,3,11.8943344533333,72.86287403,8639.5454269
1,15,1,AsyncTheta,105,1003_4Hz.avi,acoustic6_oneeighty_4Hz.wav,acoustic,4,5.5123575000016,0,1,20,79,105,5,3,13,4,11.8943344533333,72.86287403,8646.3285549
1,16,1,SyncTheta,64,1098_4Hz.avi,dar11_zero_4Hz.wav,dar,4,2.58251770000061,1,1,40,114,147,64,4,7,3,11.8943344533333,72.86287403,8654.9365938
1,1,2,NoFlickerFull,152,1445_half_amp.avi,willow2_half_amp.wav,willow,1,5.94207610000012,1,1,152,171,32,37,1,4,3,5.905499165,72.86287403,8880.9219632
1,2,2,NoFlickerFull,150,1394_half_amp.avi,ep11_half_amp.wav,ep,1,6.52766729999894,0,1,176,150,41,87,2,5,1,5.905499165,72.86287403,8892.2884783
1,3,2,NoFlickerFull,176,1405_half_amp.avi,ep46_half_amp.wav,ep,3,6.71975590000147,0,1,41,176,150,87,2,2,4,5.905499165,72.86287403,8902.6214257
1,4,2,NoFlickerHalf,71,1076_half_length.avi,synth21_half_length.wav,synth,2,3.00926219999928,0,1,8,127,71,155,3,1,4,5.905499165,72.86287403,8914.6460444
1,5,2,NoFlickerFull,185,1131_half_amp.avi,guitar45_half_amp.wav,guitar,2,4.57898190000014,1,1,59,185,112,67,2,15,2,5.905499165,72.86287403,8922.4626081
1,6,2,NoFlickerFull,171,1280_half_amp.avi,willow19_half_amp.wav,willow,4,5.20457739999983,0,1,152,171,37,32,2,9,4,5.905499165,72.86287403,8930.4789401
1,7,2,NoFlickerHalf,37,1237_half_length.avi,willow15_half_length.wav,willow,1,6.53313119999984,1,1,37,32,171,152,1,13,2,5.905499165,72.86287403,8938.8622532
1,8,2,NoFlickerHalf,59,1346_half_length.avi,guitar33_half_length.wav,guitar,3,8.7501185000001,1,1,185,112,59,67,3,8,3,5.905499165,72.86287403,8948.953607
1,9,2,NoFlickerHalf,67,1310_half_length.avi,guitar21_half_length.wav,guitar,4,3.09072790000027,1,1,185,59,112,67,4,10,4,5.905499165,72.86287403,8960.4531285
1,10,2,NoFlickerHalf,32,1360_half_length.avi,willow10_half_length.wav,willow,1,4.15126930000042,0,1,152,37,32,171,3,7,1,5.905499165,72.86287403,8967.8280039
1,11,2,NoFlickerFull,112,1388_half_amp.avi,guitar39_half_amp.wav,guitar,3,3.69729689999986,0,1,112,59,67,185,1,3,5,5.905499165,72.86287403,8975.5026973
1,12,2,NoFlickerFull,127,1411_half_amp.avi,synth28_half_amp.wav,synth,1,3.8245809,1,1,127,8,155,71,1,12,1,5.905499165,72.86287403,8984.0940534
1,13,2,NoFlickerHalf,87,1142_half_length.avi,ep3_half_length.wav,ep,4,4.40747900000133,0,1,176,87,41,150,2,6,2,5.905499165,72.86287403,8990.4855887
1,14,2,NoFlickerFull,155,1042_half_amp.avi,synth10_half_amp.wav,synth,3,3.32193409999854,1,1,71,127,155,8,3,14,4,5.905499165,72.86287403,8997.4771056
1,15,2,NoFlickerHalf,41,1132_half_length.avi,ep10_half_length.wav,ep,3,2.07435350000014,0,1,41,176,87,150,1,16,2,5.905499165,72.86287403,9004.4017773
1,16,2,NoFlickerHalf,8,1252_half_length.avi,synth25_half_length.wav,synth,2,3.12239899999986,1,1,155,8,127,71,2,11,5,5.905499165,72.86287403,9008.9519649
1,1,3,NoFlickerFull,118,1020_half_amp.avi,willow22_half_amp.wav,willow,2,4.42818270000134,1,1,66,118,167,27,2,2,2,5.22881088833333,72.86287403,9198.954719
1,2,3,NoFlickerFull,177,1283_half_amp.avi,ep38_half_amp.wav,ep,2,3.83853570000065,1,1,16,177,24,144,2,9,4,5.22881088833333,72.86287403,9207.9794639
1,3,3,NoFlickerFull,144,1255_half_amp.avi,ep28_half_amp.wav,ep,1,4.05849289999969,1,1,144,177,24,16,1,8,4,5.22881088833333,72.86287403,9215.0625872
1,4,3,NoFlickerFull,129,1286_half_amp.avi,synth30_half_amp.wav,synth,3,5.60745260000112,0,1,95,129,100,184,2,3,4,5.22881088833333,72.86287403,9222.9125216
1,5,3,NoFlickerHalf,46,1210_half_length.avi,guitar48_half_length.wav,guitar,2,3.72809779999989,1,1,151,46,183,77,2,15,1,5.22881088833333,72.86287403,9231.1205649
1,6,3,NoFlickerFull,167,1177_half_amp.avi,willow24_half_amp.wav,willow,4,4.3018118,0,1,118,167,66,27,2,11,2,5.22881088833333,72.86287403,9238.3371772
1,7,3,NoFlickerHalf,27,1202_half_length.avi,willow16_half_length.wav,willow,2,5.18313400000079,0,1,167,66,27,118,3,16,3,5.22881088833333,72.86287403,9245.7953115
1,8,3,NoFlickerFull,151,1259_half_amp.avi,guitar43_half_amp.wav,guitar,3,4.08960709999883,0,1,183,46,77,151,4,6,2,5.22881088833333,72.86287403,9256.4533422
1,9,3,NoFlickerFull,183,1374_half_amp.avi,guitar16_half_amp.wav,guitar,1,5.64846370000123,1,1,183,77,151,46,1,13,3,5.22881088833333,72.86287403,9262.578171
1,10,3,NoFlickerHalf,66,1215_half_length.avi,willow18_half_length.wav,willow,3,3.96028350000051,0,1,27,66,167,118,2,7,4,5.22881088833333,72.86287403,9272.2776958
1,11,3,NoFlickerHalf,77,1008_half_length.avi,guitar42_half_length.wav,guitar,3,7.40773869999975,1,1,46,151,77,183,3,1,2,5.22881088833333,72.86287403,9278.852478
1,12,3,NoFlickerFull,184,1052_half_amp.avi,synth40_half_amp.wav,synth,2,6.27184560000023,1,1,100,184,129,95,2,5,4,5.22881088833333,72.86287403,9289.9521396
1,13,3,NoFlickerHalf,16,1442_half_length.avi,ep34_half_length.wav,ep,2,3.51921229999971,1,1,144,16,24,177,2,10,3,5.22881088833333,72.86287403,9299.9935225
1,14,3,NoFlickerHalf,100,1107_half_length.avi,synth23_half_length.wav,synth,3,7.10548960000051,1,1,184,95,100,129,3,14,1,5.22881088833333,72.86287403,9306.2519292
1,15,3,NoFlickerHalf,24,1217_half_length.avi,ep44_half_length.wav,ep,2,3.60460239999884,1,1,144,24,16,177,2,12,2,5.22881088833333,72.86287403,9315.4514206
1,16,3,NoFlickerHalf,95,1359_half_length.avi,synth33_half_length.wav,synth,3,3.44182340000043,1,1,100,184,95,129,3,4,5,5.22881088833333,72.86287403,9322.5680447
1,1,4,AsyncTheta,137,1303_4Hz.avi,orch10_oneeighty_4Hz.wav,orch,4,6.8640634000003,0,1,57,134,137,42,3,4,1,5.42749621,72.86287403,9513.91273
1,2,4,SyncTheta,58,1323_4Hz.avi,acoustic29_zero_4Hz.wav,acoustic,4,4.51177769999958,0,1,58,83,1,104,1,3,1,5.42749621,72.86287403,9525.1705093
1,3,4,SyncTheta,1,1064_4Hz.avi,acoustic12_zero_4Hz.wav,acoustic,4,7.95890899999904,0,1,83,1,104,58,2,2,1,5.42749621,72.86287403,9533.8785879
1,4,4,AsyncTheta,162,1358_4Hz.avi,dar7_oneeighty_4Hz.wav,dar,2,3.16721529999995,1,1,82,162,49,29,2,1,2,5.42749621,72.86287403,9545.4948783
1,5,4,AsyncTheta,88,1191_4Hz.avi,choir20_oneeighty_4Hz.wav,choir,1,5.41106070000023,0,1,11,88,10,76,2,13,2,5.42749621,72.86287403,9551.0533516
1,6,4,SyncTheta,57,1309_4Hz.avi,orch7_zero_4Hz.wav,orch,3,3.11855680000008,1,1,134,42,57,137,3,11,3,5.42749621,72.86287403,9561.7444804
1,7,4,SyncTheta,42,1339_4Hz.avi,orch31_zero_4Hz.wav,orch,3,4.71629600000051,1,1,57,134,42,137,3,15,3,5.42749621,72.86287403,9568.2778838
1,8,4,SyncTheta,10,1179_4Hz.avi,choir4_zero_4Hz.wav,choir,1,5.11248230000092,0,1,76,88,10,11,3,8,3,5.42749621,72.86287403,9576.5357501
1,9,4,SyncTheta,11,1448_4Hz.avi,choir36_zero_4Hz.wav,choir,3,4.89130790000127,0,1,11,88,10,76,1,12,2,5.42749621,72.86287403,9585.5021568
1,10,4,AsyncTheta,134,1026_4Hz.avi,orch16_oneeighty_4Hz.wav,orch,3,4.83345460000055,0,1,42,57,137,134,4,5,2,5.42749621,72.86287403,9596.8519414
1,11,4,AsyncTheta,76,1293_4Hz.avi,choir23_oneeighty_4Hz.wav,choir,3,4.13138239999898,1,1,10,88,76,11,3,7,2,5.42749621,72.86287403,9606.1683565
1,12,4,SyncTheta,29,1158_4Hz.avi,dar23_zero_4Hz.wav,dar,1,3.4637789999997,0,1,49,162,82,29,4,14,1,5.42749621,72.86287403,9615.0263457
1,13,4,AsyncTheta,83,1139_4Hz.avi,acoustic27_oneeighty_4Hz.wav,acoustic,1,4.0929369000005,0,1,1,58,83,104,3,6,1,5.42749621,72.86287403,9621.9844732
1,14,4,SyncTheta,49,1221_4Hz.avi,dar21_zero_4Hz.wav,dar,3,7.34991390000141,1,1,29,162,49,82,3,16,1,5.42749621,72.86287403,9628.6511731
1,15,4,AsyncTheta,104,1111_4Hz.avi,acoustic31_oneeighty_4Hz.wav,acoustic,3,5.07988149999983,0,1,104,1,58,83,1,9,2,5.42749621,72.86287403,9640.1090067
1,16,4,AsyncTheta,82,1449_4Hz.avi,dar17_oneeighty_4Hz.wav,dar,3,3.95421420000093,1,1,162,49,82,29,3,10,4,5.42749621,72.86287403,9647.933754
1,1,5,AsyncTheta,141,1401_4Hz.avi,orch12_oneeighty_4Hz.wav,orch,1,5.45579550000002,0,1,142,30,36,141,4,11,3,6.10476289833333,72.86287403,9875.1692403
1,2,5,AsyncTheta,148,1121_4Hz.avi,acoustic26_oneeighty_4Hz.wav,acoustic,4,4.26793689999977,0,1,148,21,44,190,1,7,1,6.10476289833333,72.86287403,9885.8437775
1,3,5,SyncTheta,21,1112_4Hz.avi,acoustic32_zero_4Hz.wav,acoustic,2,5.04399879999983,0,1,148,190,21,44,3,5,2,6.10476289833333,72.86287403,9893.8185068
1,4,5,AsyncTheta,191,1314_4Hz.avi,dar19_oneeighty_4Hz.wav,dar,2,5.75350059999982,0,1,122,14,191,34,3,1,2,6.10476289833333,72.86287403,9904.5434355
1,5,5,SyncTheta,69,1216_4Hz.avi,choir32_zero_4Hz.wav,choir,1,8.4428558999989,0,1,159,78,69,68,3,8,3,6.10476289833333,72.86287403,9914.8762306
1,6,5,SyncTheta,36,1284_4Hz.avi,orch29_zero_4Hz.wav,orch,1,3.28072520000023,1,1,36,142,141,30,1,15,1,6.10476289833333,72.86287403,9926.7009533
1,7,5,AsyncTheta,142,1155_4Hz.avi,orch9_oneeighty_4Hz.wav,orch,2,3.75594369999999,0,1,142,141,36,30,1,16,1,6.10476289833333,72.86287403,9933.8590272
1,8,5,AsyncTheta,159,1091_4Hz.avi,choir8_oneeighty_4Hz.wav,choir,4,4.47627489999832,0,1,68,78,159,69,3,3,1,6.10476289833333,72.86287403,9941.4673868
1,9,5,SyncTheta,68,1023_4Hz.avi,choir3_zero_4Hz.wav,choir,4,10.5196090999998,1,1,78,69,159,68,4,4,2,6.10476289833333,72.86287403,9948.0335984
1,10,5,SyncTheta,30,1016_4Hz.avi,orch14_zero_4Hz.wav,orch,4,3.92197379999925,1,1,36,141,142,30,4,12,3,6.10476289833333,72.86287403,9961.1666062
1,11,5,AsyncTheta,78,1301_4Hz.avi,choir11_oneeighty_4Hz.wav,choir,2,3.98293340000055,1,1,68,78,159,69,2,2,3,6.10476289833333,72.86287403,9967.4581456
1,12,5,SyncTheta,14,1416_4Hz.avi,dar1_zero_4Hz.wav,dar,1,4.63958600000115,0,1,34,122,191,14,4,13,2,6.10476289833333,72.86287403,9975.3997819
1,13,5,SyncTheta,44,1254_4Hz.avi,acoustic48_zero_4Hz.wav,acoustic,1,5.84049260000029,1,1,44,21,148,190,1,9,2,6.10476289833333,72.86287403,9983.9495569
1,14,5,SyncTheta,34,1319_4Hz.avi,dar22_zero_4Hz.wav,dar,1,4.67854340000122,1,1,34,14,191,122,1,14,3,6.10476289833333,72.86287403,9993.6573851
1,15,5,AsyncTheta,190,1427_4Hz.avi,acoustic46_oneeighty_4Hz.wav,acoustic,4,5.3729801999998,0,1,148,44,190,21,3,10,1,6.10476289833333,72.86287403,10001.0572643
1,16,5,AsyncTheta,122,1289_4Hz.avi,dar3_oneeighty_4Hz.wav,dar,2,8.32613320000019,1,1,14,122,34,191,2,6,2,6.10476289833333,72.86287403,10010.0820324
1,1,6,NoFlickerFull,130,1081_half_amp.avi,willow5_half_amp.wav,willow,1,3.99336410000069,1,1,130,108,48,120,1,3,4,5.15648846666667,72.86287403,10187.66031
1,2,6,NoFlickerFull,138,1149_half_amp.avi,ep2_half_amp.wav,ep,3,4.88918349999949,1,1,173,99,138,26,3,4,5,5.15648846666667,72.86287403,10195.7766331
1,3,6,NoFlickerHalf,26,1190_half_length.avi,ep7_half_length.wav,ep,1,3.67835389999891,1,1,26,99,138,173,1,1,5,5.15648846666667,72.86287403,10204.4015608
1,4,6,NoFlickerHalf,89,1393_half_length.avi,synth41_half_length.wav,synth,3,9.24055609999959,0,1,50,163,140,89,4,2,4,5.15648846666667,72.86287403,10213.8181594
1,5,6,NoFlickerFull,168,1204_half_amp.avi,guitar36_half_amp.wav,guitar,2,5.80960369999957,1,1,172,168,7,73,2,16,4,5.15648846666667,72.86287403,10227.4759138
1,6,6,NoFlickerHalf,108,1415_half_length.avi,willow3_half_length.wav,willow,2,3.84902809999949,0,1,108,48,120,130,1,12,3,5.15648846666667,72.86287403,10236.4089575
1,7,6,NoFlickerHalf,48,1021_half_length.avi,willow12_half_length.wav,willow,2,8.65333860000101,0,1,130,120,48,108,3,15,3,5.15648846666667,72.86287403,10242.1923636
1,8,6,NoFlickerHalf,73,1369_half_length.avi,guitar19_half_length.wav,guitar,4,6.51426689999971,0,1,168,73,7,172,2,6,2,5.15648846666667,72.86287403,10255.4917429
1,9,6,NoFlickerFull,172,1350_half_amp.avi,guitar10_half_amp.wav,guitar,3,6.22612540000046,0,1,7,172,73,168,2,9,1,5.15648846666667,72.86287403,10266.0830672
1,10,6,NoFlickerFull,120,1365_half_amp.avi,willow21_half_amp.wav,willow,2,4.27242719999958,1,1,108,120,48,130,2,7,4,5.15648846666667,72.86287403,10277.1827978
1,11,6,NoFlickerHalf,7,1017_half_length.avi,guitar47_half_length.wav,guitar,3,4.82514649999939,0,1,168,7,172,73,2,5,2,5.15648846666667,72.86287403,10284.1493031
1,12,6,NoFlickerFull,163,1441_half_amp.avi,synth27_half_amp.wav,synth,4,4.05245560000003,0,1,163,89,140,50,1,10,1,5.15648846666667,72.86287403,10293.2657291
1,13,6,NoFlickerFull,173,1348_half_amp.avi,ep31_half_amp.wav,ep,4,4.84832639999877,1,1,138,99,26,173,4,11,3,5.15648846666667,72.86287403,10302.6905265
1,14,6,NoFlickerHalf,50,1049_half_length.avi,synth43_half_length.wav,synth,4,2.98455789999934,0,1,50,163,140,89,1,13,1,5.15648846666667,72.86287403,10309.9318488
1,15,6,NoFlickerHalf,99,1173_half_length.avi,ep6_half_length.wav,ep,4,5.13048750000053,0,1,138,99,173,26,2,14,2,5.15648846666667,72.86287403,10315.3151175
1,16,6,NoFlickerFull,140,1270_half_amp.avi,synth17_half_amp.wav,synth,1,3.89014170000155,0,1,163,50,89,140,4,8,2,5.15648846666667,72.86287403,10324.1398755
1,1,7,NoFlickerHalf,18,1101_half_length.avi,willow13_half_length.wav,willow,2,4.44389749999937,1,1,94,18,149,119,2,5,3,5.23389031166667,72.86287403,10503.2099646
1,2,7,NoFlickerFull,132,1356_half_amp.avi,ep30_half_amp.wav,ep,1,3.77056030000131,0,1,166,86,101,132,4,6,5,5.23389031166667,72.86287403,10512.1014771
1,3,7,NoFlickerFull,166,1227_half_amp.avi,ep5_half_amp.wav,ep,1,7.69104599999991,0,1,101,166,86,132,2,3,2,5.23389031166667,72.86287403,10519.0263828
1,4,7,NoFlickerHalf,35,1039_half_length.avi,synth5_half_length.wav,synth,4,4.51415730000008,0,1,131,35,111,51,2,1,2,5.23389031166667,72.86287403,10529.5091222
1,5,7,NoFlickerFull,164,1087_half_amp.avi,guitar17_half_amp.wav,guitar,3,5.04108099999939,1,1,84,146,164,90,3,13,5,5.23389031166667,72.86287403,10536.6425694
1,6,7,NoFlickerFull,149,1200_half_amp.avi,willow8_half_amp.wav,willow,3,5.55505169999924,0,1,94,149,119,18,2,15,2,5.23389031166667,72.86287403,10544.6256754
1,7,7,NoFlickerHalf,94,1109_half_length.avi,willow6_half_length.wav,willow,2,5.84082820000003,0,1,94,149,119,18,1,16,2,5.23389031166667,72.86287403,10552.9168584
1,8,7,NoFlickerFull,146,1005_half_amp.avi,guitar14_half_amp.wav,guitar,1,4.73000169999978,0,1,84,90,164,146,4,4,1,5.23389031166667,72.86287403,10562.5918462
1,9,7,NoFlickerHalf,90,1273_half_length.avi,guitar23_half_length.wav,guitar,1,8.99284629999966,1,1,90,146,164,84,1,9,1,5.23389031166667,72.86287403,10570.5497243
1,10,7,NoFlickerFull,119,1189_half_amp.avi,willow11_half_amp.wav,willow,2,5.37427000000025,0,1,149,18,94,119,4,7,2,5.23389031166667,72.86287403,10581.6412943
1,11,7,NoFlickerHalf,84,1294_half_length.avi,guitar6_half_length.wav,guitar,3,9.87665879999986,1,1,164,146,84,90,3,2,3,5.23389031166667,72.86287403,10589.7326391
1,12,7,NoFlickerHalf,51,1331_half_length.avi,synth47_half_length.wav,synth,4,7.08788970000023,0,1,111,131,51,35,3,12,1,5.23389031166667,72.86287403,10603.0824146
1,13,7,NoFlickerHalf,86,1278_half_length.avi,ep35_half_length.wav,ep,2,4.09955900000023,0,1,86,132,166,101,1,8,1,5.23389031166667,72.86287403,10615.3903912
1,14,7,NoFlickerFull,131,1366_half_amp.avi,synth34_half_amp.wav,synth,2,4.40771590000077,1,1,51,131,35,111,2,14,5,5.23389031166667,72.86287403,10621.2485695
1,15,7,NoFlickerHalf,101,1295_half_length.avi,ep40_half_length.wav,ep,1,3.67039790000126,0,1,132,86,166,101,4,11,1,5.23389031166667,72.86287403,10628.6817062
1,16,7,NoFlickerFull,111,1390_half_amp.avi,synth3_half_amp.wav,synth,3,5.68144949999987,1,1,35,51,111,131,3,10,3,5.23389031166667,72.86287403,10636.6145516
1,1,8,AsyncTheta,145,1352_4Hz.avi,orch39_oneeighty_4Hz.wav,orch,4,4.90641860000142,0,1,17,145,165,33,2,5,1,5.141901125,72.86287403,10810.709914
1,2,8,AsyncTheta,175,1103_4Hz.avi,acoustic10_oneeighty_4Hz.wav,acoustic,1,5.52502319999985,1,1,175,47,133,23,1,7,2,5.141901125,72.86287403,10819.4929166
1,3,8,AsyncTheta,133,1341_4Hz.avi,acoustic14_oneeighty_4Hz.wav,acoustic,4,4.65362419999838,0,1,133,23,175,47,1,3,2,5.141901125,72.86287403,10828.3846236
1,4,8,AsyncTheta,103,1084_4Hz.avi,dar20_oneeighty_4Hz.wav,dar,4,6.14519420000033,1,1,56,187,31,103,4,2,2,5.141901125,72.86287403,10835.9007783
1,5,8,AsyncTheta,181,1168_4Hz.avi,choir1_oneeighty_4Hz.wav,choir,1,4.63176829999975,1,1,181,38,19,139,1,11,4,5.141901125,72.86287403,10844.6338742
1,6,8,SyncTheta,17,1162_4Hz.avi,orch1_zero_4Hz.wav,orch,3,5.01406580000003,1,1,33,145,17,165,3,9,4,5.141901125,72.86287403,10852.7919781
1,7,8,AsyncTheta,165,1410_4Hz.avi,orch43_oneeighty_4Hz.wav,orch,3,7.21721009999965,1,1,33,145,165,17,3,12,2,5.141901125,72.86287403,10860.3250567
1,8,8,SyncTheta,19,1247_4Hz.avi,choir38_zero_4Hz.wav,choir,2,4.20776640000076,0,1,38,139,181,19,4,4,3,5.141901125,72.86287403,10872.7665521
1,9,8,AsyncTheta,139,1192_4Hz.avi,choir5_oneeighty_4Hz.wav,choir,3,11.3149563000006,0,1,181,38,19,139,4,10,1,5.141901125,72.86287403,10878.8829181
1,10,8,SyncTheta,33,1136_4Hz.avi,orch38_zero_4Hz.wav,orch,2,12.5344060999996,0,1,165,145,17,33,4,6,4,5.141901125,72.86287403,10894.1658518
1,11,8,SyncTheta,38,1184_4Hz.avi,choir33_zero_4Hz.wav,choir,3,5.80265470000086,1,1,181,19,38,139,3,1,1,5.141901125,72.86287403,10909.6903376
1,12,8,SyncTheta,31,1404_4Hz.avi,dar8_zero_4Hz.wav,dar,2,3.95728719999897,1,1,103,31,187,56,2,15,4,5.141901125,72.86287403,10917.8821145
1,13,8,SyncTheta,47,1292_4Hz.avi,acoustic28_zero_4Hz.wav,acoustic,2,7.19920969999839,0,1,175,23,47,133,3,8,3,5.141901125,72.86287403,10924.0652695
1,14,8,AsyncTheta,187,1164_4Hz.avi,dar12_oneeighty_4Hz.wav,dar,2,3.73965809999936,1,1,56,187,103,31,2,16,4,5.141901125,72.86287403,10933.2897926
1,15,8,SyncTheta,23,1330_4Hz.avi,acoustic47_zero_4Hz.wav,acoustic,2,5.10133909999968,1,1,175,23,133,47,2,14,3,5.141901125,72.86287403,10939.4228863
1,16,8,SyncTheta,56,1063_4Hz.avi,dar16_zero_4Hz.wav,dar,1,3.9569244000013,1,1,56,103,31,187,1,13,1,5.141901125,72.86287403,10947.0729877
1,1,9,AsyncTheta,110,1443_4Hz.avi,orch3_oneeighty_4Hz.wav,orch,3,3.97522779999963,1,1,74,91,110,174,3,1,2,7.39683699833333,72.86287403,11247.7144907
1,2,9,AsyncTheta,96,1027_4Hz.avi,acoustic40_oneeighty_4Hz.wav,acoustic,4,5.02526729999954,1,1,9,107,4,96,4,5,1,7.39683699833333,72.86287403,11254.6143536
1,3,9,SyncTheta,4,1167_4Hz.avi,acoustic37_zero_4Hz.wav,acoustic,4,5.27036070000031,0,1,4,9,107,96,1,3,3,7.39683699833333,72.86287403,11262.655834
1,4,9,AsyncTheta,116,1420_4Hz.avi,dar18_oneeighty_4Hz.wav,dar,3,6.37783990000025,1,1,43,45,116,126,3,7,1,7.39683699833333,72.86287403,11270.5640721
1,5,9,AsyncTheta,98,1014_4Hz.avi,choir41_oneeighty_4Hz.wav,choir,4,5.79153540000152,0,1,12,182,98,62,3,16,2,7.39683699833333,72.86287403,11281.7136748
1,6,9,AsyncTheta,174,1119_4Hz.avi,orch45_oneeighty_4Hz.wav,orch,2,6.08883670000068,1,1,110,174,91,74,2,13,4,7.39683699833333,72.86287403,11292.2552504
1,7,9,SyncTheta,74,1337_4Hz.avi,orch24_zero_4Hz.wav,orch,1,7.28347670000039,0,1,91,174,74,110,3,15,2,7.39683699833333,72.86287403,11301.7630715
1,8,9,AsyncTheta,182,1277_4Hz.avi,choir39_oneeighty_4Hz.wav,choir,1,6.9306519999991,1,1,182,12,62,98,1,6,4,7.39683699833333,72.86287403,11313.0210979
1,9,9,SyncTheta,12,1077_4Hz.avi,choir18_zero_4Hz.wav,choir,2,7.12179719999949,1,1,98,12,182,62,2,9,2,7.39683699833333,72.86287403,11322.8042231
1,10,9,SyncTheta,91,1340_4Hz.avi,orch46_zero_4Hz.wav,orch,1,3.45669529999941,0,1,74,110,174,91,4,4,4,7.39683699833333,72.86287403,11334.7374283
1,11,9,SyncTheta,62,1058_4Hz.avi,choir19_zero_4Hz.wav,choir,1,5.10246720000032,1,1,62,98,182,12,1,2,1,7.39683699833333,72.86287403,11341.1036902
1,12,9,SyncTheta,43,1141_4Hz.avi,dar13_zero_4Hz.wav,dar,3,4.86820249999982,1,1,126,45,43,116,3,12,4,7.39683699833333,72.86287403,11352.0619618
1,13,9,AsyncTheta,107,1265_4Hz.avi,acoustic16_oneeighty_4Hz.wav,acoustic,1,6.19144880000022,1,1,107,4,9,96,1,10,4,7.39683699833333,72.86287403,11360.9531471
1,14,9,AsyncTheta,126,1298_4Hz.avi,dar9_oneeighty_4Hz.wav,dar,2,6.19869689999905,1,1,43,126,45,116,2,14,1,7.39683699833333,72.86287403,11371.1361221
1,15,9,SyncTheta,9,1054_4Hz.avi,acoustic44_zero_4Hz.wav,acoustic,3,4.13314379999974,0,1,107,9,4,96,2,11,1,7.39683699833333,72.86287403,11380.9943821
1,16,9,SyncTheta,45,1203_4Hz.avi,dar2_zero_4Hz.wav,dar,2,5.92737429999943,1,1,43,45,126,116,2,8,1,7.39683699833333,72.86287403,11389.1607103
1,1,10,NoFlickerFull,156,1060_half_amp.avi,willow7_half_amp.wav,willow,1,4.99774830000024,0,1,92,153,75,156,4,3,5,5.02691757833333,72.86287403,11570.2643895
1,2,10,NoFlickerHalf,106,1113_half_length.avi,ep29_half_length.wav,ep,4,4.48285260000011,0,1,123,6,106,189,3,7,1,5.02691757833333,72.86287403,11577.6391972
1,3,10,NoFlickerFull,189,1051_half_amp.avi,ep14_half_amp.wav,ep,4,4.05660100000023,0,1,106,123,189,6,3,6,2,5.02691757833333,72.86287403,11584.1890443
1,4,10,NoFlickerFull,128,1269_half_amp.avi,synth14_half_amp.wav,synth,3,4.42435990000013,1,1,54,186,128,61,3,1,5,5.02691757833333,72.86287403,11591.2136178
1,5,10,NoFlickerHalf,15,1422_half_length.avi,guitar37_half_length.wav,guitar,3,3.19394230000034,1,1,115,170,15,53,3,12,2,5.02691757833333,72.86287403,11597.3470132
1,6,10,NoFlickerHalf,75,1040_half_length.avi,willow17_half_length.wav,willow,3,6.83797700000105,0,1,92,153,156,75,4,13,5,5.02691757833333,72.86287403,11604.4051671
1,7,10,NoFlickerFull,153,1157_half_amp.avi,willow1_half_amp.wav,willow,4,5.56307480000032,0,1,75,92,153,156,3,16,4,5.02691757833333,72.86287403,11613.8630289
1,8,10,NoFlickerFull,170,1062_half_amp.avi,guitar3_half_amp.wav,guitar,3,7.11031709999952,1,1,53,115,170,15,3,9,4,5.02691757833333,72.86287403,11622.8627485
1,9,10,NoFlickerFull,115,1370_half_amp.avi,guitar9_half_amp.wav,guitar,1,6.23848419999922,0,1,15,170,115,53,3,10,5,5.02691757833333,72.86287403,11633.7710336
1,10,10,NoFlickerHalf,92,1030_half_length.avi,willow23_half_length.wav,willow,1,3.79019300000073,0,1,75,156,153,92,4,11,1,5.02691757833333,72.86287403,11644.012212
1,11,10,NoFlickerHalf,53,1197_half_length.avi,guitar46_half_length.wav,guitar,2,2.2013549000003,1,1,115,53,15,170,2,4,3,5.02691757833333,72.86287403,11651.4622222
1,12,10,NoFlickerHalf,54,1181_half_length.avi,synth12_half_length.wav,synth,4,5.41824070000075,0,1,186,128,54,61,3,5,3,5.02691757833333,72.86287403,11659.6783482
1,13,10,NoFlickerHalf,6,1007_half_length.avi,ep8_half_length.wav,ep,2,4.14053260000037,1,1,189,6,106,123,2,14,4,5.02691757833333,72.86287403,11669.3614356
1,14,10,NoFlickerFull,186,1031_half_amp.avi,synth7_half_amp.wav,synth,3,5.17013170000064,0,1,128,61,54,186,4,8,4,5.02691757833333,72.86287403,11677.0282102
1,15,10,NoFlickerFull,123,1067_half_amp.avi,ep37_half_amp.wav,ep,4,5.97462019999875,0,1,189,123,6,106,2,15,3,5.02691757833333,72.86287403,11685.6112948
1,16,10,NoFlickerHalf,61,1207_half_length.avi,synth46_half_length.wav,synth,1,2.55925859999843,0,1,128,186,54,61,4,2,3,5.02691757833333,72.86287403,11694.3944186
1,1,11,NoFlickerHalf,22,1212_half_length.avi,willow20_half_length.wav,willow,3,4.85159460000068,0,1,178,22,157,55,2,3,2,4.742313525,72.86287403,11859.5064301
1,2,11,NoFlickerHalf,65,1013_half_length.avi,ep22_half_length.wav,ep,1,4.34939250000025,0,1,117,25,65,180,3,10,2,4.742313525,72.86287403,11869.556159
1,3,11,NoFlickerFull,117,1144_half_amp.avi,ep39_half_amp.wav,ep,2,4.43620829999963,0,1,65,25,180,117,4,4,2,4.742313525,72.86287403,11876.2978993
1,4,11,NoFlickerFull,125,1050_half_amp.avi,synth36_half_amp.wav,synth,4,6.45739640000102,0,1,70,125,109,135,2,1,4,4.742313525,72.86287403,11886.8891782
1,5,11,NoFlickerHalf,93,1046_half_length.avi,guitar18_half_length.wav,guitar,4,3.81508190000022,0,1,93,3,161,179,1,15,2,4.742313525,72.86287403,11898.6139619
1,6,11,NoFlickerFull,178,1057_half_amp.avi,willow9_half_amp.wav,willow,1,3.41931769999974,1,1,178,157,22,55,1,6,4,4.742313525,72.86287403,11905.738615
1,7,11,NoFlickerFull,157,1225_half_amp.avi,willow14_half_amp.wav,willow,3,3.94453340000109,1,1,22,55,157,178,3,8,1,4.742313525,72.86287403,11911.1300058
1,8,11,NoFlickerFull,179,1186_half_amp.avi,guitar30_half_amp.wav,guitar,1,5.20597409999937,0,1,93,3,179,161,3,7,3,4.742313525,72.86287403,11919.479829
1,9,11,NoFlickerFull,161,1433_half_amp.avi,guitar2_half_amp.wav,guitar,4,3.65479789999881,0,1,179,93,161,3,3,9,4,4.742313525,72.86287403,11927.8548683
1,10,11,NoFlickerHalf,55,1044_half_length.avi,willow4_half_length.wav,willow,3,4.07302359999994,1,1,157,178,55,22,3,5,1,4.742313525,72.86287403,11936.6293221
1,11,11,NoFlickerHalf,3,1156_half_length.avi,guitar31_half_length.wav,guitar,3,4.10334030000013,0,1,3,161,93,179,1,2,4,4.742313525,72.86287403,11943.2041556
1,12,11,NoFlickerHalf,109,1299_half_length.avi,synth18_half_length.wav,synth,4,3.23017780000009,0,1,109,125,135,70,1,13,5,4.742313525,72.86287403,11952.3125495
1,13,11,NoFlickerHalf,25,1094_half_length.avi,ep15_half_length.wav,ep,4,2.78120579999995,1,1,65,117,180,25,4,11,4,4.742313525,72.86287403,11958.0040695
1,14,11,NoFlickerHalf,70,1093_half_length.avi,synth6_half_length.wav,synth,2,3.09003109999867,0,1,135,109,70,125,3,16,3,4.742313525,72.86287403,11962.6120253
1,15,11,NoFlickerFull,180,1006_half_amp.avi,ep4_half_amp.wav,ep,3,6.52960989999883,1,1,65,25,180,117,3,14,5,4.742313525,72.86287403,11968.8286083
1,16,11,NoFlickerFull,135,1154_half_amp.avi,synth38_half_amp.wav,synth,4,3.83900680000079,0,1,109,70,135,125,3,12,1,4.742313525,72.86287403,11977.9200406
1,1,12,AsyncTheta,192,1231_4Hz.avi,orch32_oneeighty_4Hz.wav,orch,4,3.87117279999984,1,1,143,85,81,192,4,2,3,5.044352815,72.86287403,12148.0738648
1,2,12,SyncTheta,60,1249_4Hz.avi,acoustic20_zero_4Hz.wav,acoustic,4,4.02131670000017,1,1,113,39,169,60,4,6,4,5.044352815,72.86287403,12156.2986239
1,3,12,SyncTheta,39,1061_4Hz.avi,acoustic11_zero_4Hz.wav,acoustic,3,4.10431459999927,0,1,169,60,113,39,4,1,3,5.044352815,72.86287403,12163.1819567
1,4,12,SyncTheta,2,1431_4Hz.avi,dar24_zero_4Hz.wav,dar,3,4.98695130000124,0,1,136,2,80,154,2,4,1,5.044352815,72.86287403,12171.4067554
1,5,12,SyncTheta,72,1097_4Hz.avi,choir29_zero_4Hz.wav,choir,4,6.3221125,0,1,160,72,13,124,2,14,1,5.044352815,72.86287403,12179.7730834
1,6,12,SyncTheta,81,1444_4Hz.avi,orch4_zero_4Hz.wav,orch,2,7.76634360000025,0,1,85,143,192,81,4,8,5,5.044352815,72.86287403,12189.6894321
1,7,12,SyncTheta,85,1383_4Hz.avi,orch23_zero_4Hz.wav,orch,2,4.98673280000003,0,1,192,81,85,143,3,16,2,5.044352815,72.86287403,12200.2059756
1,8,12,AsyncTheta,160,1421_4Hz.avi,choir13_oneeighty_4Hz.wav,choir,3,4.14020729999902,0,1,72,124,13,160,4,12,1,5.044352815,72.86287403,12210.4640333
1,9,12,AsyncTheta,124,1183_4Hz.avi,choir24_oneeighty_4Hz.wav,choir,2,7.72560510000039,0,1,124,160,13,72,1,13,1,5.044352815,72.86287403,12217.4554266
1,10,12,AsyncTheta,143,1127_4Hz.avi,orch11_oneeighty_4Hz.wav,orch,2,4.09885840000061,0,1,143,81,85,192,1,3,1,5.044352815,72.86287403,12229.2467624
1,11,12,SyncTheta,13,1201_4Hz.avi,choir7_zero_4Hz.wav,choir,4,4.44117769999866,1,1,72,160,124,13,4,5,3,5.044352815,72.86287403,12236.0381687
1,12,12,AsyncTheta,154,1074_4Hz.avi,dar5_oneeighty_4Hz.wav,dar,2,9.33516189999864,0,1,2,136,154,80,3,9,1,5.044352815,72.86287403,12243.1548354
1,13,12,AsyncTheta,113,1037_4Hz.avi,acoustic23_oneeighty_4Hz.wav,acoustic,1,3.92240189999939,1,1,113,60,169,39,1,10,4,5.044352815,72.86287403,12255.5878316
1,14,12,AsyncTheta,136,1175_4Hz.avi,dar4_oneeighty_4Hz.wav,dar,4,4.64795260000028,1,1,2,154,80,136,4,15,1,5.044352815,72.86287403,12262.3041858
1,15,12,AsyncTheta,169,1083_4Hz.avi,acoustic43_oneeighty_4Hz.wav,acoustic,2,5.83953509999992,1,1,39,169,113,60,2,11,1,5.044352815,72.86287403,12269.5705495
1,16,12,SyncTheta,80,1082_4Hz.avi,dar15_zero_4Hz.wav,dar,1,5.047430300001,1,1,80,2,136,154,1,7,1,5.044352815,72.86287403,12279.6455035
