ParticipantID,TrialNumber,BlockNumber,Condition,ClipID,VideoFile,SoundFile,SoundCategory,Response,RT,Accuracy,ConditionID,Frame1,Frame2,Frame3,Frame4,CorrectKey,EncodingPosition,Rating,BlockDuration,ExperimentDuration,MemoryTestOnset
6,1,1,SyncTheta,41,1132_4Hz.avi,ep10_zero_4Hz.wav,ep,4,3.82047359999979,0,6,176,41,150,87,2,12,4,7.31018085833333,60.0777314116667,3367.4168057
6,2,1,AsyncTheta,127,1411_4Hz.avi,synth28_oneeighty_4Hz.wav,synth,1,5.59556960000009,1,6,127,71,155,8,1,5,1,7.31018085833333,60.0777314116667,3373.8583457
6,3,1,AsyncTheta,152,1445_4Hz.avi,willow2_oneeighty_4Hz.wav,willow,2,5.53230650000023,0,6,152,37,32,171,1,14,1,7.31018085833333,60.0777314116667,3383.0332258
6,4,1,SyncTheta,67,1310_4Hz.avi,guitar21_zero_4Hz.wav,guitar,4,4.04022279999981,0,6,112,67,59,185,2,9,3,7.31018085833333,60.0777314116667,3391.9495903
6,5,1,SyncTheta,87,1142_4Hz.avi,ep3_zero_4Hz.wav,ep,4,3.95186909999984,1,6,41,150,176,87,4,8,4,7.31018085833333,60.0777314116667,3398.7577498
6,6,1,AsyncTheta,150,1394_4Hz.avi,ep11_oneeighty_4Hz.wav,ep,4,4.42730710000023,1,6,176,87,41,150,4,16,1,7.31018085833333,60.0777314116667,3405.5409329
6,7,1,SyncTheta,71,1076_4Hz.avi,synth21_zero_4Hz.wav,synth,4,3.89836760000026,0,6,8,71,127,155,2,11,2,7.31018085833333,60.0777314116667,3413.1573768
6,8,1,SyncTheta,8,1252_4Hz.avi,synth25_zero_4Hz.wav,synth,3,4.76451369999995,0,6,8,127,155,71,1,1,3,7.31018085833333,60.0777314116667,3418.8741077
6,9,1,AsyncTheta,185,1131_4Hz.avi,guitar45_oneeighty_4Hz.wav,guitar,3,3.80700340000021,0,6,185,59,112,67,1,10,3,7.31018085833333,60.0777314116667,3425.3572231
6,10,1,AsyncTheta,112,1388_4Hz.avi,guitar39_oneeighty_4Hz.wav,guitar,2,4.52382900000021,0,6,59,67,112,185,3,6,5,7.31018085833333,60.0777314116667,3431.0152825
6,11,1,SyncTheta,37,1237_4Hz.avi,willow15_zero_4Hz.wav,willow,2,4.74226080000017,1,6,152,37,171,32,2,13,4,7.31018085833333,60.0777314116667,3437.4566599
6,12,1,AsyncTheta,155,1042_4Hz.avi,synth10_oneeighty_4Hz.wav,synth,1,2.78872359999968,0,6,8,127,71,155,4,4,4,7.31018085833333,60.0777314116667,3444.0566207
6,13,1,AsyncTheta,171,1280_4Hz.avi,willow19_oneeighty_4Hz.wav,willow,2,3.25646830000005,0,6,152,32,171,37,3,2,3,7.31018085833333,60.0777314116667,3449.7313414
6,14,1,AsyncTheta,176,1405_4Hz.avi,ep46_oneeighty_4Hz.wav,ep,2,4.6951167999996,0,6,41,87,150,176,4,7,2,7.31018085833333,60.0777314116667,3455.3981984
6,15,1,SyncTheta,59,1346_4Hz.avi,guitar33_zero_4Hz.wav,guitar,1,3.65303930000027,0,6,67,59,112,185,2,3,3,7.31018085833333,60.0777314116667,3463.6896598
6,16,1,SyncTheta,32,1360_4Hz.avi,willow10_zero_4Hz.wav,willow,2,2.58975220000002,1,6,171,32,152,37,2,15,1,7.31018085833333,60.0777314116667,3469.3475824
6,1,2,NoFlickerHalf,20,1236_half_length.avi,acoustic25_half_length.wav,acoustic,3,5.46802389999993,1,6,5,105,20,79,3,13,5,5.320606385,60.0777314116667,3674.5091879
6,2,2,NoFlickerHalf,64,1098_half_length.avi,dar11_half_length.wav,dar,1,4.51859800000011,1,6,64,147,114,40,1,14,2,5.320606385,60.0777314116667,3683.3671944
6,3,2,NoFlickerHalf,28,1148_half_length.avi,orch19_half_length.wav,orch,4,6.62764589999961,1,6,188,102,158,28,4,8,1,5.320606385,60.0777314116667,3690.4254638
6,4,2,NoFlickerFull,97,1368_half_amp.avi,choir30_half_amp.wav,choir,3,4.61168559999987,1,6,52,63,97,121,3,11,5,5.320606385,60.0777314116667,3700.4668109
6,5,2,NoFlickerFull,105,1003_half_amp.avi,acoustic6_half_amp.wav,acoustic,3,4.77533519999997,1,6,20,5,105,79,3,6,5,5.320606385,60.0777314116667,3706.9085318
6,6,2,NoFlickerFull,79,1071_half_amp.avi,acoustic17_half_amp.wav,acoustic,3,6.58406090000017,0,6,79,20,105,5,1,15,3,5.320606385,60.0777314116667,3714.3247655
6,7,2,NoFlickerFull,147,1304_half_amp.avi,dar10_half_amp.wav,dar,3,4.55450829999972,0,6,64,40,114,147,4,16,1,5.320606385,60.0777314116667,3724.3495803
6,8,2,NoFlickerFull,114,1322_half_amp.avi,dar14_half_amp.wav,dar,1,3.45470190000015,0,6,147,114,40,64,2,2,1,5.320606385,60.0777314116667,3732.4328825
6,9,2,NoFlickerFull,121,1354_half_amp.avi,choir22_half_amp.wav,choir,4,3.92885699999988,1,6,97,63,52,121,4,12,2,5.320606385,60.0777314116667,3739.1158879
6,10,2,NoFlickerHalf,52,1387_half_length.avi,choir2_half_length.wav,choir,4,4.85128299999997,1,6,63,97,121,52,4,5,1,5.320606385,60.0777314116667,3745.3741349
6,11,2,NoFlickerHalf,102,1012_half_length.avi,orch18_half_length.wav,orch,2,5.35348040000008,1,6,188,102,28,158,2,7,3,5.320606385,60.0777314116667,3751.9488306
6,12,2,NoFlickerHalf,40,1239_half_length.avi,dar6_half_length.wav,dar,1,3.08282379999991,1,6,40,114,147,64,1,9,1,5.320606385,60.0777314116667,3760.1488667
6,13,2,NoFlickerFull,188,1036_half_amp.avi,orch26_half_amp.wav,orch,2,6.91225579999991,1,6,102,188,28,158,2,3,4,5.320606385,60.0777314116667,3765.0235917
6,14,2,NoFlickerHalf,5,1381_half_length.avi,acoustic1_half_length.wav,acoustic,4,4.11223010000003,1,6,79,20,105,5,4,4,4,5.320606385,60.0777314116667,3774.0485331
6,15,2,NoFlickerHalf,63,1128_half_length.avi,choir26_half_length.wav,choir,3,4.91521179999972,1,6,97,121,63,52,3,1,5,5.320606385,60.0777314116667,3781.0733359
6,16,2,NoFlickerFull,158,1206_half_amp.avi,orch6_half_amp.wav,orch,3,2.43834759999982,1,6,102,28,158,188,3,10,1,5.320606385,60.0777314116667,3788.9314825
6,1,3,NoFlickerFull,83,1139_half_amp.avi,acoustic27_half_amp.wav,acoustic,4,8.0376068999999,1,6,58,1,104,83,4,13,4,4.676447385,60.0777314116667,3954.6604398
6,2,3,NoFlickerFull,162,1358_half_amp.avi,dar7_half_amp.wav,dar,2,4.17094489999999,1,6,29,162,49,82,2,7,1,4.676447385,60.0777314116667,3964.7351995
6,3,3,NoFlickerFull,134,1026_half_amp.avi,orch16_half_amp.wav,orch,1,5.31693210000003,0,6,42,137,134,57,3,15,5,4.676447385,60.0777314116667,3970.6352879
6,4,3,NoFlickerHalf,10,1179_half_length.avi,choir4_half_length.wav,choir,1,4.55238020000024,1,6,10,76,11,88,1,9,4,4.676447385,60.0777314116667,3977.5433126
6,5,3,NoFlickerFull,104,1111_half_amp.avi,acoustic31_half_amp.wav,acoustic,3,5.81180680000034,1,6,83,1,104,58,3,8,3,4.676447385,60.0777314116667,3985.2597244
6,6,3,NoFlickerHalf,1,1064_half_length.avi,acoustic12_half_length.wav,acoustic,3,4.27958480000007,0,6,1,83,58,104,1,14,4,4.676447385,60.0777314116667,3994.0263347
6,7,3,NoFlickerHalf,29,1158_half_length.avi,dar23_half_length.wav,dar,2,4.5228046000002,0,6,82,49,162,29,4,11,1,4.676447385,60.0777314116667,4000.951
6,8,3,NoFlickerHalf,49,1221_half_length.avi,dar21_half_length.wav,dar,4,5.41174009999986,0,6,49,162,29,82,1,2,4,4.676447385,60.0777314116667,4007.0593886
6,9,3,NoFlickerHalf,11,1448_half_length.avi,choir36_half_length.wav,choir,3,6.75784299999987,0,6,10,76,88,11,4,10,2,4.676447385,60.0777314116667,4015.9755868
6,10,3,NoFlickerFull,76,1293_half_amp.avi,choir23_half_amp.wav,choir,4,2.97133189999977,1,6,11,88,10,76,4,5,1,4.676447385,60.0777314116667,4025.5753915
6,11,3,NoFlickerFull,137,1303_half_amp.avi,orch10_half_amp.wav,orch,1,6.8879879000001,0,6,57,137,42,134,2,12,1,4.676447385,60.0777314116667,4031.5751983
6,12,3,NoFlickerFull,82,1449_half_amp.avi,dar17_half_amp.wav,dar,4,4.11576910000031,1,6,29,49,162,82,4,6,1,4.676447385,60.0777314116667,4040.2334984
6,13,3,NoFlickerHalf,42,1339_half_length.avi,orch31_half_length.wav,orch,1,5.79478979999976,0,6,134,137,57,42,4,1,2,4.676447385,60.0777314116667,4047.3417113
6,14,3,NoFlickerHalf,58,1323_half_length.avi,acoustic29_half_length.wav,acoustic,2,2.61257239999986,1,6,83,58,1,104,2,3,5,4.676447385,60.0777314116667,4056.507899
6,15,3,NoFlickerFull,88,1191_half_amp.avi,choir20_half_amp.wav,choir,2,3.42589559999988,1,6,76,88,11,10,2,4,3,4.676447385,60.0777314116667,4061.3745313
6,16,3,NoFlickerHalf,57,1309_half_length.avi,orch7_half_length.wav,orch,1,3.8296763000003,1,6,57,42,134,137,1,16,1,4.676447385,60.0777314116667,4068.3326039
6,1,4,SyncTheta,16,1442_4Hz.avi,ep34_zero_4Hz.wav,ep,2,4.98817040000085,0,6,144,177,24,16,4,6,2,4.81311721666667,60.0777314116667,4250.0947234
6,2,4,AsyncTheta,184,1052_4Hz.avi,synth40_oneeighty_4Hz.wav,synth,1,5.44872450000003,0,6,95,184,100,129,2,13,2,4.81311721666667,60.0777314116667,4257.9611899
6,3,4,SyncTheta,27,1202_4Hz.avi,willow16_zero_4Hz.wav,willow,1,6.42182119999961,0,6,66,167,27,118,3,10,3,4.81311721666667,60.0777314116667,4266.9609957
6,4,4,SyncTheta,46,1210_4Hz.avi,guitar48_zero_4Hz.wav,guitar,3,4.48018039999988,1,6,183,77,46,151,3,11,3,4.81311721666667,60.0777314116667,4275.5024552
6,5,4,AsyncTheta,177,1283_4Hz.avi,ep38_oneeighty_4Hz.wav,ep,4,3.88141339999947,0,6,24,16,177,144,3,5,3,4.81311721666667,60.0777314116667,4282.8772156
6,6,4,AsyncTheta,144,1255_4Hz.avi,ep28_oneeighty_4Hz.wav,ep,3,4.02962769999976,1,6,16,24,144,177,3,16,4,4.81311721666667,60.0777314116667,4288.5855835
6,7,4,SyncTheta,100,1107_4Hz.avi,synth23_zero_4Hz.wav,synth,1,6.34070789999987,0,6,129,184,100,95,3,15,2,4.81311721666667,60.0777314116667,4295.1771715
6,8,4,SyncTheta,95,1359_4Hz.avi,synth33_zero_4Hz.wav,synth,3,2.17266680000012,1,6,184,129,95,100,3,7,3,4.81311721666667,60.0777314116667,4304.4767944
6,9,4,AsyncTheta,183,1374_4Hz.avi,guitar16_oneeighty_4Hz.wav,guitar,1,3.89635599999929,0,6,77,151,183,46,3,14,3,4.81311721666667,60.0777314116667,4309.3683226
6,10,4,AsyncTheta,151,1259_4Hz.avi,guitar43_oneeighty_4Hz.wav,guitar,3,3.89420449999943,0,6,77,183,46,151,4,8,2,4.81311721666667,60.0777314116667,4315.7764463
6,11,4,SyncTheta,66,1215_4Hz.avi,willow18_zero_4Hz.wav,willow,3,3.51140440000017,1,6,167,118,66,27,3,4,4,4.81311721666667,60.0777314116667,4321.309935
6,12,4,AsyncTheta,129,1286_4Hz.avi,synth30_oneeighty_4Hz.wav,synth,2,3.66540239999995,0,6,129,95,184,100,1,9,2,4.81311721666667,60.0777314116667,4328.2427944
6,13,4,AsyncTheta,167,1177_4Hz.avi,willow24_oneeighty_4Hz.wav,willow,4,6.70422529999996,0,6,66,167,27,118,2,2,3,4.81311721666667,60.0777314116667,4334.3179407
6,14,4,SyncTheta,24,1217_4Hz.avi,ep44_zero_4Hz.wav,ep,2,4.54367180000008,1,6,144,24,16,177,2,1,4,4.81311721666667,60.0777314116667,4343.9675307
6,15,4,SyncTheta,77,1008_4Hz.avi,guitar42_zero_4Hz.wav,guitar,3,4.27972030000001,0,6,151,46,183,77,4,3,2,4.81311721666667,60.0777314116667,4350.6256116
6,16,4,AsyncTheta,118,1020_4Hz.avi,willow22_oneeighty_4Hz.wav,willow,2,4.26791869999943,0,6,66,167,118,27,3,12,1,4.81311721666667,60.0777314116667,4356.9087145
6,1,5,AsyncTheta,173,1348_4Hz.avi,ep31_oneeighty_4Hz.wav,ep,4,6.6648696000002,0,6,173,99,26,138,1,12,4,4.8323488,60.0777314116667,4536.3293726
6,2,5,SyncTheta,89,1393_4Hz.avi,synth41_zero_4Hz.wav,synth,2,4.87260590000005,0,6,50,140,89,163,3,11,1,4.8323488,60.0777314116667,4546.262627
6,3,5,SyncTheta,108,1415_4Hz.avi,willow3_zero_4Hz.wav,willow,1,4.33204750000004,0,6,48,120,108,130,3,7,1,4.8323488,60.0777314116667,4553.1959129
6,4,5,SyncTheta,7,1017_4Hz.avi,guitar47_zero_4Hz.wav,guitar,1,5.41314880000027,0,6,172,73,7,168,3,9,1,4.8323488,60.0777314116667,4561.0120753
6,5,5,SyncTheta,26,1190_4Hz.avi,ep7_zero_4Hz.wav,ep,3,3.4002502000003,0,6,138,173,99,26,4,6,4,4.8323488,60.0777314116667,4569.8201779
6,6,5,AsyncTheta,138,1149_4Hz.avi,ep2_oneeighty_4Hz.wav,ep,4,4.23198289999982,0,6,99,138,26,173,2,16,5,4.8323488,60.0777314116667,4575.595201
6,7,5,SyncTheta,50,1049_4Hz.avi,synth43_zero_4Hz.wav,synth,4,5.01654460000009,0,6,89,50,140,163,2,15,1,4.8323488,60.0777314116667,4582.6948745
6,8,5,AsyncTheta,140,1270_4Hz.avi,synth17_oneeighty_4Hz.wav,synth,1,2.02605829999993,0,6,50,89,163,140,4,3,3,4.8323488,60.0777314116667,4591.0197744
6,9,5,SyncTheta,73,1369_4Hz.avi,guitar19_zero_4Hz.wav,guitar,2,3.61061119999977,0,6,168,172,73,7,3,14,1,4.8323488,60.0777314116667,4596.5695727
6,10,5,AsyncTheta,172,1350_4Hz.avi,guitar10_oneeighty_4Hz.wav,guitar,3,6.69227809999938,0,6,168,7,73,172,4,8,1,4.8323488,60.0777314116667,4603.7943898
6,11,5,SyncTheta,48,1021_4Hz.avi,willow12_zero_4Hz.wav,willow,1,3.15270610000061,0,6,130,120,108,48,4,5,2,4.8323488,60.0777314116667,4612.952541
6,12,5,AsyncTheta,163,1441_4Hz.avi,synth27_oneeighty_4Hz.wav,synth,3,4.6741192999998,1,6,140,89,163,50,3,10,2,4.8323488,60.0777314116667,4619.4524984
6,13,5,AsyncTheta,130,1081_4Hz.avi,willow5_oneeighty_4Hz.wav,willow,2,4.51095960000021,0,6,48,108,130,120,3,1,3,4.8323488,60.0777314116667,4627.5774221
6,14,5,SyncTheta,99,1173_4Hz.avi,ep6_zero_4Hz.wav,ep,1,3.29552090000016,0,6,173,99,138,26,2,4,4,4.8323488,60.0777314116667,4633.9106095
6,15,5,AsyncTheta,168,1204_4Hz.avi,guitar36_oneeighty_4Hz.wav,guitar,2,3.72319650000009,1,6,172,168,7,73,2,2,2,4.8323488,60.0777314116667,4638.8604757
6,16,5,AsyncTheta,120,1365_4Hz.avi,willow21_oneeighty_4Hz.wav,willow,3,5.7208455,0,6,120,130,108,48,1,13,1,4.8323488,60.0777314116667,4645.6434138
6,1,6,NoFlickerHalf,21,1112_half_length.avi,acoustic32_half_length.wav,acoustic,3,4.09984570000051,1,6,190,44,21,148,3,11,1,4.72045176166667,60.0777314116667,4809.4727028
6,2,6,NoFlickerHalf,34,1319_half_length.avi,dar22_half_length.wav,dar,3,5.42894729999989,0,6,122,34,14,191,2,10,3,4.72045176166667,60.0777314116667,4816.3308833
6,3,6,NoFlickerHalf,30,1016_half_length.avi,orch14_half_length.wav,orch,3,4.01063800000065,1,6,36,141,30,142,3,14,4,4.72045176166667,60.0777314116667,4824.2222821
6,4,6,NoFlickerHalf,68,1023_half_length.avi,choir3_half_length.wav,choir,3,5.30625810000038,1,6,78,69,68,159,3,8,2,4.72045176166667,60.0777314116667,4831.5304532
6,5,6,NoFlickerHalf,44,1254_half_length.avi,acoustic48_half_length.wav,acoustic,3,5.82735099999991,1,6,148,21,44,190,3,9,3,4.72045176166667,60.0777314116667,4838.5054806
6,6,6,NoFlickerFull,148,1121_half_amp.avi,acoustic26_half_amp.wav,acoustic,3,6.08781439999984,0,6,21,148,44,190,2,12,2,4.72045176166667,60.0777314116667,4845.90507
6,7,6,NoFlickerFull,122,1289_half_amp.avi,dar3_half_amp.wav,dar,3,5.29390069999954,0,6,14,122,34,191,2,13,1,4.72045176166667,60.0777314116667,4853.9466017
6,8,6,NoFlickerFull,191,1314_half_amp.avi,dar19_half_amp.wav,dar,4,4.23801989999993,0,6,14,34,191,122,3,5,3,4.72045176166667,60.0777314116667,4862.5463362
6,9,6,NoFlickerFull,78,1301_half_amp.avi,choir11_half_amp.wav,choir,2,8.82463450000068,0,6,69,159,78,68,3,16,5,4.72045176166667,60.0777314116667,4870.1045459
6,10,6,NoFlickerFull,159,1091_half_amp.avi,choir8_half_amp.wav,choir,4,6.11375940000016,1,6,69,78,68,159,4,3,1,4.72045176166667,60.0777314116667,4882.2460578
6,11,6,NoFlickerFull,142,1155_half_amp.avi,orch9_half_amp.wav,orch,4,4.6657011999996,0,6,36,142,30,141,2,4,4,4.72045176166667,60.0777314116667,4890.195761
6,12,6,NoFlickerHalf,14,1416_half_length.avi,dar1_half_length.wav,dar,2,3.57719660000021,1,6,191,14,34,122,2,7,1,4.72045176166667,60.0777314116667,4897.9871398
6,13,6,NoFlickerHalf,36,1284_half_length.avi,orch29_half_length.wav,orch,3,7.10840589999952,1,6,142,141,36,30,3,1,5,4.72045176166667,60.0777314116667,4904.3870182
6,14,6,NoFlickerFull,190,1427_half_amp.avi,acoustic46_half_amp.wav,acoustic,2,5.34380750000037,0,6,148,21,190,44,3,6,2,4.72045176166667,60.0777314116667,4913.8701899
6,15,6,NoFlickerHalf,69,1216_half_length.avi,choir32_half_length.wav,choir,2,6.19189079999978,0,6,68,78,69,159,3,2,3,4.72045176166667,60.0777314116667,4922.6699804
6,16,6,NoFlickerFull,141,1401_half_amp.avi,orch12_half_amp.wav,orch,3,4.07755769999949,0,6,36,30,142,141,4,15,5,4.72045176166667,60.0777314116667,4930.7696855
6,1,7,NoFlickerHalf,23,1330_half_length.avi,acoustic47_half_length.wav,acoustic,3,10.7467637,1,6,47,133,23,175,3,15,4,4.73132687,60.0777314116667,5102.157265
6,2,7,NoFlickerFull,187,1164_half_amp.avi,dar12_half_amp.wav,dar,2,6.15907489999972,1,6,103,187,56,31,2,9,3,4.73132687,60.0777314116667,5114.6484969
6,3,7,NoFlickerHalf,17,1162_half_length.avi,orch1_half_length.wav,orch,2,4.99055659999976,0,6,145,33,165,17,4,10,3,4.73132687,60.0777314116667,5124.0650753
6,4,7,NoFlickerHalf,19,1247_half_length.avi,choir38_half_length.wav,choir,2,7.53487289999975,1,6,139,19,181,38,2,7,3,4.73132687,60.0777314116667,5131.7398832
6,5,7,NoFlickerFull,175,1103_half_amp.avi,acoustic10_half_amp.wav,acoustic,3,5.53410799999983,0,6,175,47,133,23,1,11,5,4.73132687,60.0777314116667,5141.0979478
6,6,7,NoFlickerFull,133,1341_half_amp.avi,acoustic14_half_amp.wav,acoustic,2,3.76201750000018,0,6,47,175,133,23,3,16,5,4.73132687,60.0777314116667,5148.597755
6,7,7,NoFlickerHalf,56,1063_half_length.avi,dar16_half_length.wav,dar,3,2.7821541000003,0,6,103,56,187,31,2,12,1,4.73132687,60.0777314116667,5155.2976748
6,8,7,NoFlickerFull,103,1084_half_amp.avi,dar20_half_amp.wav,dar,3,4.4852479000001,1,6,187,56,103,31,3,1,5,4.73132687,60.0777314116667,5161.1723729
6,9,7,NoFlickerFull,139,1192_half_amp.avi,choir5_half_amp.wav,choir,1,5.68432750000011,0,6,181,139,19,38,2,13,1,4.73132687,60.0777314116667,5167.9058262
6,10,7,NoFlickerHalf,38,1184_half_length.avi,choir33_half_length.wav,choir,1,3.95988639999996,1,6,38,19,181,139,1,3,1,4.73132687,60.0777314116667,5175.2223212
6,11,7,NoFlickerFull,165,1410_half_amp.avi,orch43_half_amp.wav,orch,1,6.63913369999955,0,6,17,33,165,145,3,6,1,4.73132687,60.0777314116667,5181.1469053
6,12,7,NoFlickerHalf,31,1404_half_length.avi,dar8_half_length.wav,dar,4,1.81272439999975,1,6,103,56,187,31,4,5,2,4.73132687,60.0777314116667,5190.0050684
6,13,7,NoFlickerHalf,33,1136_half_length.avi,orch38_half_length.wav,orch,2,3.13111899999967,1,6,17,33,145,165,2,4,4,4.73132687,60.0777314116667,5193.7466593
6,14,7,NoFlickerHalf,47,1292_half_length.avi,acoustic28_half_length.wav,acoustic,2,3.73468049999974,1,6,175,47,23,133,2,8,4,4.73132687,60.0777314116667,5200.371682
6,15,7,NoFlickerFull,181,1168_half_amp.avi,choir1_half_amp.wav,choir,2,6.60887129999992,0,6,19,139,38,181,4,2,3,4.73132687,60.0777314116667,5206.304881
6,16,7,NoFlickerFull,145,1352_half_amp.avi,orch39_half_amp.wav,orch,4,3.68867659999978,1,6,33,17,165,145,4,14,1,4.73132687,60.0777314116667,5215.2627621
6,1,8,AsyncTheta,166,1227_4Hz.avi,ep5_oneeighty_4Hz.wav,ep,2,6.73503629999959,1,6,132,166,101,86,2,8,4,4.83710888666667,60.0777314116667,5397.5415713
6,2,8,SyncTheta,35,1039_4Hz.avi,synth5_zero_4Hz.wav,synth,3,6.16538700000001,1,6,131,111,35,51,3,11,2,4.83710888666667,60.0777314116667,5406.0914279
6,3,8,SyncTheta,94,1109_4Hz.avi,willow6_zero_4Hz.wav,willow,1,3.8758528999997,0,6,119,149,94,18,3,14,2,4.83710888666667,60.0777314116667,5413.9495397
6,4,8,SyncTheta,90,1273_4Hz.avi,guitar23_zero_4Hz.wav,guitar,4,6.00131770000007,0,6,84,164,90,146,3,10,3,4.83710888666667,60.0777314116667,5420.9327801
6,5,8,SyncTheta,86,1278_4Hz.avi,ep35_zero_4Hz.wav,ep,1,4.59021679999933,1,6,86,101,132,166,1,4,3,4.83710888666667,60.0777314116667,5428.7075339
6,6,8,AsyncTheta,132,1356_4Hz.avi,ep30_oneeighty_4Hz.wav,ep,4,5.90734900000007,0,6,86,132,101,166,2,15,2,4.83710888666667,60.0777314116667,5434.9823975
6,7,8,AsyncTheta,131,1366_4Hz.avi,synth34_oneeighty_4Hz.wav,synth,3,4.10005559999991,0,6,131,51,111,35,1,12,2,4.83710888666667,60.0777314116667,5444.1655285
6,8,8,SyncTheta,51,1331_4Hz.avi,synth47_zero_4Hz.wav,synth,2,2.56198979999954,1,6,111,51,35,131,2,6,4,4.83710888666667,60.0777314116667,5450.648686
6,9,8,AsyncTheta,164,1087_4Hz.avi,guitar17_oneeighty_4Hz.wav,guitar,3,7.0018326999998,0,6,164,146,84,90,1,13,2,4.83710888666667,60.0777314116667,5455.890102
6,10,8,SyncTheta,84,1294_4Hz.avi,guitar6_zero_4Hz.wav,guitar,2,4.00222219999978,1,6,164,84,146,90,2,9,3,4.83710888666667,60.0777314116667,5466.1816212
6,11,8,AsyncTheta,119,1189_4Hz.avi,willow11_oneeighty_4Hz.wav,willow,1,4.01678509999965,0,6,149,94,119,18,3,5,3,4.83710888666667,60.0777314116667,5473.3815034
6,12,8,AsyncTheta,111,1390_4Hz.avi,synth3_oneeighty_4Hz.wav,synth,4,3.02659729999959,0,6,111,51,35,131,1,7,4,4.83710888666667,60.0777314116667,5480.1312754
6,13,8,AsyncTheta,149,1200_4Hz.avi,willow8_oneeighty_4Hz.wav,willow,4,6.72470880000037,0,6,94,119,149,18,3,3,3,4.83710888666667,60.0777314116667,5485.1310839
6,14,8,SyncTheta,101,1295_4Hz.avi,ep40_zero_4Hz.wav,ep,3,4.1610983999999,1,6,166,132,101,86,3,1,4,4.83710888666667,60.0777314116667,5494.2726479
6,15,8,AsyncTheta,146,1005_4Hz.avi,guitar14_oneeighty_4Hz.wav,guitar,1,2.60510449999947,0,6,164,146,90,84,2,2,1,4.83710888666667,60.0777314116667,5500.4892981
6,16,8,SyncTheta,18,1101_4Hz.avi,willow13_zero_4Hz.wav,willow,1,4.05059880000044,0,6,119,149,94,18,4,16,2,4.83710888666667,60.0777314116667,5505.3974042
6,1,9,AsyncTheta,189,1051_4Hz.avi,ep14_oneeighty_4Hz.wav,ep,1,3.1907411000002,0,6,106,6,123,189,4,15,3,5.14902444166667,60.0777314116667,5724.8587118
6,2,9,AsyncTheta,186,1031_4Hz.avi,synth7_oneeighty_4Hz.wav,synth,4,2.90686460000052,0,6,186,61,54,128,1,10,2,5.14902444166667,60.0777314116667,5730.0916941
6,3,9,AsyncTheta,153,1157_4Hz.avi,willow1_oneeighty_4Hz.wav,willow,2,2.85466690000067,0,6,92,156,153,75,3,8,4,5.14902444166667,60.0777314116667,5735.3749535
6,4,9,AsyncTheta,115,1370_4Hz.avi,guitar9_oneeighty_4Hz.wav,guitar,1,6.62841070000013,0,6,170,15,115,53,3,13,1,5.14902444166667,60.0777314116667,5740.7080497
6,5,9,SyncTheta,6,1007_4Hz.avi,ep8_zero_4Hz.wav,ep,4,5.68869509999968,0,6,106,6,189,123,2,9,5,5.14902444166667,60.0777314116667,5750.8829034
6,6,9,AsyncTheta,123,1067_4Hz.avi,ep37_oneeighty_4Hz.wav,ep,1,4.29143289999956,0,6,6,106,123,189,3,16,3,5.14902444166667,60.0777314116667,5758.6742973
6,7,9,SyncTheta,54,1181_4Hz.avi,synth12_zero_4Hz.wav,synth,2,3.34636979999959,0,6,61,128,54,186,3,12,1,5.14902444166667,60.0777314116667,5766.1825236
6,8,9,SyncTheta,61,1207_4Hz.avi,synth46_zero_4Hz.wav,synth,4,2.35571340000024,1,6,54,186,128,61,4,2,3,5.14902444166667,60.0777314116667,5771.2989935
6,9,9,AsyncTheta,170,1062_4Hz.avi,guitar3_oneeighty_4Hz.wav,guitar,4,4.61836350000067,0,6,53,170,115,15,2,14,1,5.14902444166667,60.0777314116667,5775.8072071
6,10,9,SyncTheta,53,1197_4Hz.avi,guitar46_zero_4Hz.wav,guitar,4,2.8239837000001,1,6,170,115,15,53,4,7,2,5.14902444166667,60.0777314116667,5783.0070522
6,11,9,AsyncTheta,156,1060_4Hz.avi,willow7_oneeighty_4Hz.wav,willow,4,3.78634939999938,1,6,75,92,153,156,4,4,5,5.14902444166667,60.0777314116667,5788.1321377
6,12,9,AsyncTheta,128,1269_4Hz.avi,synth14_oneeighty_4Hz.wav,synth,3,2.22593529999995,1,6,54,61,128,186,3,6,4,5.14902444166667,60.0777314116667,5795.1900294
6,13,9,SyncTheta,75,1040_4Hz.avi,willow17_zero_4Hz.wav,willow,2,2.66800930000045,0,6,92,153,75,156,3,3,2,5.14902444166667,60.0777314116667,5800.3568342
6,14,9,SyncTheta,106,1113_4Hz.avi,ep29_zero_4Hz.wav,ep,3,3.60568599999988,1,6,123,6,106,189,3,5,5,5.14902444166667,60.0777314116667,5805.2647913
6,15,9,SyncTheta,15,1422_4Hz.avi,guitar37_zero_4Hz.wav,guitar,2,3.27152019999994,1,6,170,15,53,115,2,1,1,5.14902444166667,60.0777314116667,5810.9396573
6,16,9,SyncTheta,92,1030_4Hz.avi,willow23_zero_4Hz.wav,willow,1,2.31996220000019,0,6,75,153,92,156,3,11,3,5.14902444166667,60.0777314116667,5816.3061923
6,1,10,NoFlickerFull,96,1027_half_amp.avi,acoustic40_half_amp.wav,acoustic,1,6.2929967,0,6,107,4,9,96,4,7,3,4.28939695333333,60.0777314116667,5971.0023823
6,2,10,NoFlickerHalf,43,1141_half_length.avi,dar13_half_length.wav,dar,2,5.36091419999957,0,6,45,126,43,116,3,8,3,4.28939695333333,60.0777314116667,5980.1939785
6,3,10,NoFlickerFull,110,1443_half_amp.avi,orch3_half_amp.wav,orch,2,3.09327110000049,1,6,174,110,91,74,2,12,4,4.28939695333333,60.0777314116667,5988.5685121
6,4,10,NoFlickerFull,98,1014_half_amp.avi,choir41_half_amp.wav,choir,1,5.00190730000031,0,6,62,12,98,182,3,10,1,4.28939695333333,60.0777314116667,5994.2434758
6,5,10,NoFlickerFull,107,1265_half_amp.avi,acoustic16_half_amp.wav,acoustic,4,3.25039510000079,1,6,9,96,4,107,4,6,3,4.28939695333333,60.0777314116667,6002.718421
6,6,10,NoFlickerHalf,4,1167_half_length.avi,acoustic37_half_length.wav,acoustic,3,3.37453840000035,1,6,9,96,4,107,3,15,4,4.28939695333333,60.0777314116667,6008.3680353
6,7,10,NoFlickerFull,126,1298_half_amp.avi,dar9_half_amp.wav,dar,3,5.27153240000007,1,6,45,43,126,116,3,14,3,4.28939695333333,60.0777314116667,6015.1512599
6,8,10,NoFlickerFull,116,1420_half_amp.avi,dar18_half_amp.wav,dar,2,2.94159480000053,0,6,126,45,116,43,3,4,5,4.28939695333333,60.0777314116667,6023.0092938
6,9,10,NoFlickerFull,182,1277_half_amp.avi,choir39_half_amp.wav,choir,4,4.46388560000014,0,6,182,62,98,12,1,13,1,4.28939695333333,60.0777314116667,6027.7758859
6,10,10,NoFlickerHalf,12,1077_half_length.avi,choir18_half_length.wav,choir,1,6.21794829999999,0,6,182,62,12,98,3,9,3,4.28939695333333,60.0777314116667,6034.1925762
6,11,10,NoFlickerFull,174,1119_half_amp.avi,orch45_half_amp.wav,orch,2,3.33598220000022,1,6,110,174,91,74,2,11,4,4.28939695333333,60.0777314116667,6042.8172555
6,12,10,NoFlickerHalf,45,1203_half_length.avi,dar2_half_length.wav,dar,4,4.26689129999977,1,6,43,116,126,45,4,5,5,4.28939695333333,60.0777314116667,6047.7253911
6,13,10,NoFlickerHalf,74,1337_half_length.avi,orch24_half_length.wav,orch,3,3.77624730000025,1,6,110,91,74,174,3,3,4,4.28939695333333,60.0777314116667,6054.0252371
6,14,10,NoFlickerHalf,9,1054_half_length.avi,acoustic44_half_length.wav,acoustic,3,3.96276730000045,1,6,96,4,9,107,3,1,5,4.28939695333333,60.0777314116667,6060.1834798
6,15,10,NoFlickerHalf,62,1058_half_length.avi,choir19_half_length.wav,choir,4,2.99974099999963,0,6,62,12,182,98,1,2,2,4.28939695333333,60.0777314116667,6067.641784
6,16,10,NoFlickerHalf,91,1340_half_length.avi,orch46_half_length.wav,orch,1,3.76869249999982,1,6,91,74,174,110,1,16,2,4.28939695333333,60.0777314116667,6072.4831015
6,1,11,NoFlickerHalf,39,1061_half_length.avi,acoustic11_half_length.wav,acoustic,3,6.95541140000023,0,6,39,169,60,113,1,6,3,4.62060457166667,60.0777314116667,6233.4290506
6,2,11,NoFlickerHalf,80,1082_half_length.avi,dar15_half_length.wav,dar,2,8.01576120000027,1,6,2,80,136,154,2,15,3,4.62060457166667,60.0777314116667,6243.303843
6,3,11,NoFlickerHalf,85,1383_half_length.avi,orch23_half_length.wav,orch,3,5.27186990000064,0,6,143,192,81,85,4,12,3,4.62060457166667,60.0777314116667,6252.9035748
6,4,11,NoFlickerHalf,72,1097_half_length.avi,choir29_half_length.wav,choir,4,5.98412199999984,0,6,72,160,13,124,1,10,4,4.62060457166667,60.0777314116667,6260.2450006
6,5,11,NoFlickerFull,169,1083_half_amp.avi,acoustic43_half_amp.wav,acoustic,2,7.77015420000043,0,6,169,113,60,39,1,5,2,4.62060457166667,60.0777314116667,6268.3197652
6,6,11,NoFlickerHalf,60,1249_half_length.avi,acoustic20_half_length.wav,acoustic,1,4.6209017000001,0,6,39,60,113,169,2,9,1,4.62060457166667,60.0777314116667,6278.5031168
6,7,11,NoFlickerFull,154,1074_half_amp.avi,dar5_half_amp.wav,dar,2,3.12912020000022,0,6,80,136,2,154,4,16,3,4.62060457166667,60.0777314116667,6286.3193691
6,8,11,NoFlickerFull,136,1175_half_amp.avi,dar4_half_amp.wav,dar,3,4.95641609999984,0,6,80,136,154,2,2,4,4,4.62060457166667,60.0777314116667,6291.5109206
6,9,11,NoFlickerHalf,13,1201_half_length.avi,choir7_half_length.wav,choir,3,2.64082099999996,1,6,160,72,13,124,3,11,5,4.62060457166667,60.0777314116667,6298.6609302
6,10,11,NoFlickerFull,124,1183_half_amp.avi,choir24_half_amp.wav,choir,1,7.04060200000004,0,6,72,124,160,13,2,8,1,4.62060457166667,60.0777314116667,6303.9855677
6,11,11,NoFlickerFull,143,1127_half_amp.avi,orch11_half_amp.wav,orch,2,3.23050010000043,1,6,81,143,192,85,2,3,5,4.62060457166667,60.0777314116667,6312.8605724
6,12,11,NoFlickerHalf,2,1431_half_length.avi,dar24_half_length.wav,dar,4,6.40129009999964,0,6,80,2,136,154,2,13,2,4.62060457166667,60.0777314116667,6318.9104268
6,13,11,NoFlickerHalf,81,1444_half_length.avi,orch4_half_length.wav,orch,4,5.87165769999956,1,6,85,192,143,81,4,2,4,4.62060457166667,60.0777314116667,6328.7018686
6,14,11,NoFlickerFull,113,1037_half_amp.avi,acoustic23_half_amp.wav,acoustic,3,4.2790559999994,0,6,60,169,39,113,4,1,3,4.62060457166667,60.0777314116667,6338.0597937
6,15,11,NoFlickerFull,160,1421_half_amp.avi,choir13_half_amp.wav,choir,4,3.21975949999978,1,6,13,72,124,160,4,7,1,4.62060457166667,60.0777314116667,6343.9596242
6,16,11,NoFlickerFull,192,1231_half_amp.avi,orch32_half_amp.wav,orch,4,4.39915689999998,1,6,81,143,85,192,4,14,5,4.62060457166667,60.0777314116667,6349.3760079
6,1,12,SyncTheta,65,1013_4Hz.avi,ep22_zero_4Hz.wav,ep,4,5.76290139999946,0,6,117,180,65,25,3,12,5,4.33847294333333,60.0777314116667,6514.5720189
6,2,12,AsyncTheta,135,1154_4Hz.avi,synth38_oneeighty_4Hz.wav,synth,2,5.11255540000002,1,6,125,135,70,109,2,10,2,4.33847294333333,60.0777314116667,6522.8967164
6,3,12,SyncTheta,22,1212_4Hz.avi,willow20_zero_4Hz.wav,willow,2,3.36434730000019,0,6,22,178,55,157,1,5,3,4.33847294333333,60.0777314116667,6530.3884462
6,4,12,AsyncTheta,161,1433_4Hz.avi,guitar2_oneeighty_4Hz.wav,guitar,1,3.75033670000084,0,6,3,179,93,161,4,13,3,4.33847294333333,60.0777314116667,6535.8630957
6,5,12,SyncTheta,25,1094_4Hz.avi,ep15_zero_4Hz.wav,ep,1,3.69803899999988,0,6,180,117,65,25,4,4,3,4.33847294333333,60.0777314116667,6542.2045019
6,6,12,AsyncTheta,117,1144_4Hz.avi,ep39_oneeighty_4Hz.wav,ep,3,2.78664300000037,0,6,65,25,180,117,4,15,2,4.33847294333333,60.0777314116667,6548.8961671
6,7,12,AsyncTheta,125,1050_4Hz.avi,synth36_oneeighty_4Hz.wav,synth,2,4.86009079999985,1,6,135,125,109,70,2,11,3,4.33847294333333,60.0777314116667,6555.2043788
6,8,12,SyncTheta,109,1299_4Hz.avi,synth18_zero_4Hz.wav,synth,4,5.8420328000002,0,6,70,125,109,135,3,6,2,4.33847294333333,60.0777314116667,6561.8707727
6,9,12,AsyncTheta,179,1186_4Hz.avi,guitar30_oneeighty_4Hz.wav,guitar,4,5.67539209999995,1,6,161,93,3,179,4,16,1,4.33847294333333,60.0777314116667,6569.9704568
6,10,12,SyncTheta,93,1046_4Hz.avi,guitar18_zero_4Hz.wav,guitar,3,2.49430080000002,1,6,3,179,93,161,3,9,2,4.33847294333333,60.0777314116667,6577.7622451
6,11,12,AsyncTheta,157,1225_4Hz.avi,willow14_oneeighty_4Hz.wav,willow,1,3.17842509999991,0,6,22,55,157,178,3,3,1,4.33847294333333,60.0777314116667,6582.9036059
6,12,12,SyncTheta,70,1093_4Hz.avi,synth6_zero_4Hz.wav,synth,1,2.91653829999996,0,6,135,125,109,70,4,7,2,4.33847294333333,60.0777314116667,6588.7369706
6,13,12,AsyncTheta,178,1057_4Hz.avi,willow9_oneeighty_4Hz.wav,willow,2,4.32433209999999,0,6,22,157,178,55,3,1,3,4.33847294333333,60.0777314116667,6594.020142
6,14,12,AsyncTheta,180,1006_4Hz.avi,ep4_oneeighty_4Hz.wav,ep,4,3.58243690000018,0,6,117,25,180,65,3,2,2,4.33847294333333,60.0777314116667,6601.1283076
6,15,12,SyncTheta,3,1156_4Hz.avi,guitar31_zero_4Hz.wav,guitar,4,1.98246709999967,0,6,161,3,93,179,2,8,2,4.33847294333333,60.0777314116667,6607.619604
6,16,12,SyncTheta,55,1044_4Hz.avi,willow4_zero_4Hz.wav,willow,1,1.7497172000003,0,6,157,22,55,178,3,14,4,4.33847294333333,60.0777314116667,6612.6611397
