ParticipantID,TrialNumber,BlockNumber,Condition,ClipID,VideoFile,SoundFile,SoundCategory,Response,RT,Accuracy,ConditionID,Frame1,Frame2,Frame3,Frame4,CorrectKey,EncodingPosition,Rating,BlockDuration,ExperimentDuration,MemoryTestOnset
26,1,1,AsyncTheta,152,1445_4Hz.avi,willow2_oneeighty_4Hz.wav,willow,4,7.24339689999942,0,26,152,171,37,32,1,4,1,13.102969265,75.4513533183333,6026.2487251
26,2,1,SyncTheta,8,1252_4Hz.avi,synth25_zero_4Hz.wav,synth,4,7.97821469999963,1,26,127,155,71,8,4,14,4,13.102969265,75.4513533183333,6035.790344
26,3,1,AsyncTheta,112,1388_4Hz.avi,guitar39_oneeighty_4Hz.wav,guitar,1,8.27742550000039,0,26,67,112,59,185,2,2,2,13.102969265,75.4513533183333,6046.0900978
26,4,1,AsyncTheta,176,1405_4Hz.avi,ep46_oneeighty_4Hz.wav,ep,3,6.83603829999993,0,26,176,87,150,41,1,12,3,13.102969265,75.4513533183333,6057.8562403
26,5,1,SyncTheta,87,1142_4Hz.avi,ep3_zero_4Hz.wav,ep,1,6.45909709999978,0,26,41,150,176,87,4,11,3,13.102969265,75.4513533183333,6066.9729218
26,6,1,AsyncTheta,127,1411_4Hz.avi,synth28_oneeighty_4Hz.wav,synth,3,15.8617668000006,0,26,127,8,71,155,1,1,1,13.102969265,75.4513533183333,6076.8473975
26,7,1,SyncTheta,67,1310_4Hz.avi,guitar21_zero_4Hz.wav,guitar,3,11.0829501999997,0,26,112,67,185,59,2,13,4,13.102969265,75.4513533183333,6096.3136412
26,8,1,SyncTheta,71,1076_4Hz.avi,synth21_zero_4Hz.wav,synth,2,9.63844230000086,0,26,71,127,8,155,1,8,2,13.102969265,75.4513533183333,6110.7550145
26,9,1,SyncTheta,41,1132_4Hz.avi,ep10_zero_4Hz.wav,ep,4,4.50620750000053,1,26,150,176,87,41,4,10,1,13.102969265,75.4513533183333,6123.3796514
26,10,1,SyncTheta,32,1360_4Hz.avi,willow10_zero_4Hz.wav,willow,4,10.4084225000006,0,26,152,171,32,37,3,3,2,13.102969265,75.4513533183333,6131.0378046
26,11,1,SyncTheta,37,1237_4Hz.avi,willow15_zero_4Hz.wav,willow,4,13.1197102999995,0,26,32,37,171,152,2,16,3,13.102969265,75.4513533183333,6144.2958525
26,12,1,AsyncTheta,155,1042_4Hz.avi,synth10_oneeighty_4Hz.wav,synth,1,3.31559329999982,1,26,155,127,8,71,1,9,2,13.102969265,75.4513533183333,6159.5373075
26,13,1,SyncTheta,59,1346_4Hz.avi,guitar33_zero_4Hz.wav,guitar,4,5.95458360000066,1,26,185,112,67,59,4,7,3,13.102969265,75.4513533183333,6164.4786244
26,14,1,AsyncTheta,150,1394_4Hz.avi,ep11_oneeighty_4Hz.wav,ep,3,4.67559770000025,0,26,150,176,87,41,1,5,2,13.102969265,75.4513533183333,6172.428451
26,15,1,AsyncTheta,185,1131_4Hz.avi,guitar45_oneeighty_4Hz.wav,guitar,3,6.08190699999977,0,26,59,112,67,185,4,6,3,13.102969265,75.4513533183333,6179.3701444
26,16,1,AsyncTheta,171,1280_4Hz.avi,willow19_oneeighty_4Hz.wav,willow,2,4.87443939999957,1,26,37,171,32,152,2,15,2,13.102969265,75.4513533183333,6188.6280224
26,1,2,NoFlickerHalf,102,1012_half_length.avi,orch18_half_length.wav,orch,1,8.76017379999939,0,26,158,102,188,28,2,5,4,6.90320454166667,75.4513533183333,6454.9633492
26,2,2,NoFlickerHalf,64,1098_half_length.avi,dar11_half_length.wav,dar,3,6.67746429999988,0,26,147,40,114,64,4,14,1,6.90320454166667,75.4513533183333,6465.3715184
26,3,2,NoFlickerFull,121,1354_half_amp.avi,choir22_half_amp.wav,choir,3,3.53642560000026,1,26,97,63,121,52,3,1,2,6.90320454166667,75.4513533183333,6475.0710941
26,4,2,NoFlickerFull,79,1071_half_amp.avi,acoustic17_half_amp.wav,acoustic,1,18.0399809999999,0,26,5,105,20,79,4,11,4,6.90320454166667,75.4513533183333,6481.4711439
26,5,2,NoFlickerHalf,20,1236_half_length.avi,acoustic25_half_length.wav,acoustic,2,4.85287869999956,1,26,5,20,79,105,2,9,2,6.90320454166667,75.4513533183333,6502.8286458
26,6,2,NoFlickerFull,114,1322_half_amp.avi,dar14_half_amp.wav,dar,1,4.46066300000075,1,26,114,147,40,64,1,2,1,6.90320454166667,75.4513533183333,6509.2871497
26,7,2,NoFlickerHalf,52,1387_half_length.avi,choir2_half_length.wav,choir,1,5.16642499999944,0,26,63,97,121,52,4,16,3,6.90320454166667,75.4513533183333,6516.3368761
26,8,2,NoFlickerHalf,40,1239_half_length.avi,dar6_half_length.wav,dar,1,9.03328899999997,0,26,147,40,114,64,2,6,3,6.90320454166667,75.4513533183333,6523.9284506
26,9,2,NoFlickerHalf,5,1381_half_length.avi,acoustic1_half_length.wav,acoustic,4,8.33313520000047,0,26,20,79,5,105,3,7,1,6.90320454166667,75.4513533183333,6536.0115102
26,10,2,NoFlickerHalf,28,1148_half_length.avi,orch19_half_length.wav,orch,2,5.39410570000018,0,26,158,188,28,102,3,3,2,6.90320454166667,75.4513533183333,6547.877684
26,11,2,NoFlickerFull,158,1206_half_amp.avi,orch6_half_amp.wav,orch,1,4.08832540000003,1,26,158,102,28,188,1,12,1,6.90320454166667,75.4513533183333,6556.2860433
26,12,2,NoFlickerFull,147,1304_half_amp.avi,dar10_half_amp.wav,dar,4,7.81577340000058,1,26,114,64,40,147,4,13,1,6.90320454166667,75.4513533183333,6563.2106257
26,13,2,NoFlickerFull,97,1368_half_amp.avi,choir30_half_amp.wav,choir,2,3.90051690000018,1,26,52,97,121,63,2,15,4,6.90320454166667,75.4513533183333,6572.9355048
26,14,2,NoFlickerFull,105,1003_half_amp.avi,acoustic6_half_amp.wav,acoustic,1,6.71151790000022,1,26,105,5,20,79,1,4,4,6.90320454166667,75.4513533183333,6579.1352256
26,15,2,NoFlickerHalf,63,1128_half_length.avi,choir26_half_length.wav,choir,3,3.65434329999971,0,26,63,97,52,121,1,10,3,6.90320454166667,75.4513533183333,6588.9267003
26,16,2,NoFlickerFull,188,1036_half_amp.avi,orch26_half_amp.wav,orch,4,12.9652224000001,0,26,188,28,158,102,1,8,3,6.90320454166667,75.4513533183333,6594.9434297
26,1,3,NoFlickerHalf,57,1309_half_length.avi,orch7_half_length.wav,orch,4,6.71293639999931,1,26,42,137,134,57,4,9,3,5.16760268333333,75.4513533183333,6776.7641246
26,2,3,NoFlickerHalf,49,1221_half_length.avi,dar21_half_length.wav,dar,4,6.45919239999967,1,26,162,29,82,49,4,14,1,5.16760268333333,75.4513533183333,6786.4888958
26,3,3,NoFlickerFull,88,1191_half_amp.avi,choir20_half_amp.wav,choir,4,10.7687910000004,1,26,11,10,76,88,4,1,2,5.16760268333333,75.4513533183333,6796.2801303
26,4,3,NoFlickerFull,83,1139_half_amp.avi,acoustic27_half_amp.wav,acoustic,4,9.54439850000017,0,26,104,1,83,58,3,10,3,5.16760268333333,75.4513533183333,6809.7383439
26,5,3,NoFlickerHalf,1,1064_half_length.avi,acoustic12_half_length.wav,acoustic,4,6.74778690000039,0,26,1,83,104,58,1,8,2,5.16760268333333,75.4513533183333,6821.6628335
26,6,3,NoFlickerHalf,29,1158_half_length.avi,dar23_half_length.wav,dar,3,5.44486300000062,0,26,162,82,49,29,4,2,2,5.16760268333333,75.4513533183333,6831.9043802
26,7,3,NoFlickerHalf,11,1448_half_length.avi,choir36_half_length.wav,choir,1,6.4927190999997,1,26,11,88,76,10,1,15,2,5.16760268333333,75.4513533183333,6839.5459848
26,8,3,NoFlickerFull,162,1358_half_amp.avi,dar7_half_amp.wav,dar,2,4.32372380000015,1,26,49,162,82,29,2,5,2,5.16760268333333,75.4513533183333,6848.4539389
26,9,3,NoFlickerHalf,58,1323_half_length.avi,acoustic29_half_length.wav,acoustic,2,4.83376570000019,1,26,104,58,83,1,2,6,4,5.16760268333333,75.4513533183333,6854.3870258
26,10,3,NoFlickerHalf,42,1339_half_length.avi,orch31_half_length.wav,orch,1,2.977441,1,26,42,134,137,57,1,4,1,5.16760268333333,75.4513533183333,6862.4453396
26,11,3,NoFlickerFull,134,1026_half_amp.avi,orch16_half_amp.wav,orch,2,3.97922769999968,1,26,57,134,42,137,2,16,3,5.16760268333333,75.4513533183333,6868.5284639
26,12,3,NoFlickerFull,82,1449_half_amp.avi,dar17_half_amp.wav,dar,3,11.3449768,0,26,49,162,29,82,4,12,1,5.16760268333333,75.4513533183333,6874.6284804
26,13,3,NoFlickerFull,76,1293_half_amp.avi,choir23_half_amp.wav,choir,2,5.86215749999974,1,26,10,76,11,88,2,13,1,5.16760268333333,75.4513533183333,6888.3364995
26,14,3,NoFlickerFull,104,1111_half_amp.avi,acoustic31_half_amp.wav,acoustic,3,8.41269579999971,1,26,1,83,104,58,3,3,3,5.16760268333333,75.4513533183333,6896.7528042
26,15,3,NoFlickerHalf,10,1179_half_length.avi,choir4_half_length.wav,choir,4,2.66939579999962,1,26,76,11,88,10,4,7,2,5.16760268333333,75.4513533183333,6906.8941107
26,16,3,NoFlickerFull,137,1303_half_amp.avi,orch10_half_amp.wav,orch,4,5.49044349999986,1,26,134,42,57,137,4,11,2,5.16760268333333,75.4513533183333,6912.6773462
26,1,4,AsyncTheta,118,1020_4Hz.avi,willow22_oneeighty_4Hz.wav,willow,3,12.8895339999999,0,26,118,167,66,27,1,5,1,5.76115762,75.4513533183333,7114.7892264
26,2,4,AsyncTheta,184,1052_4Hz.avi,synth40_oneeighty_4Hz.wav,synth,1,4.17282280000018,1,26,184,95,100,129,1,16,1,5.76115762,75.4513533183333,7129.7807732
26,3,4,SyncTheta,77,1008_4Hz.avi,guitar42_zero_4Hz.wav,guitar,2,9.55851430000075,0,26,77,151,46,183,1,1,2,5.76115762,75.4513533183333,7136.6471808
26,4,4,SyncTheta,16,1442_4Hz.avi,ep34_zero_4Hz.wav,ep,3,6.28839499999958,1,26,24,177,16,144,3,14,2,5.76115762,75.4513533183333,7149.4051588
26,5,4,AsyncTheta,144,1255_4Hz.avi,ep28_oneeighty_4Hz.wav,ep,1,6.03315670000029,1,26,144,24,16,177,1,11,2,5.76115762,75.4513533183333,7157.680018
26,6,4,SyncTheta,95,1359_4Hz.avi,synth33_zero_4Hz.wav,synth,1,4.34646720000001,1,26,95,100,184,129,1,4,4,5.76115762,75.4513533183333,7166.3382594
26,7,4,SyncTheta,46,1210_4Hz.avi,guitar48_zero_4Hz.wav,guitar,2,9.26516199999969,1,26,77,46,183,151,2,8,1,5.76115762,75.4513533183333,7172.5378855
26,8,4,SyncTheta,100,1107_4Hz.avi,synth23_zero_4Hz.wav,synth,1,6.78306800000064,1,26,100,184,95,129,1,12,3,5.76115762,75.4513533183333,7184.7792672
26,9,4,AsyncTheta,177,1283_4Hz.avi,ep38_oneeighty_4Hz.wav,ep,1,5.45917839999947,0,26,24,177,16,144,2,9,1,5.76115762,75.4513533183333,7194.7706434
26,10,4,AsyncTheta,167,1177_4Hz.avi,willow24_oneeighty_4Hz.wav,willow,2,7.3161611000005,0,26,167,66,27,118,1,2,2,5.76115762,75.4513533183333,7203.5206855
26,11,4,SyncTheta,27,1202_4Hz.avi,willow16_zero_4Hz.wav,willow,4,9.6211972000001,0,26,27,118,66,167,1,15,2,5.76115762,75.4513533183333,7213.9871111
26,12,4,AsyncTheta,129,1286_4Hz.avi,synth30_oneeighty_4Hz.wav,synth,2,4.63489389999995,1,26,95,129,184,100,2,13,2,5.76115762,75.4513533183333,7226.0368199
26,13,4,AsyncTheta,183,1374_4Hz.avi,guitar16_oneeighty_4Hz.wav,guitar,4,6.06270570000015,1,26,151,77,46,183,4,7,1,5.76115762,75.4513533183333,7233.3949929
26,14,4,SyncTheta,24,1217_4Hz.avi,ep44_zero_4Hz.wav,ep,4,5.12541099999999,0,26,24,16,144,177,1,3,3,5.76115762,75.4513533183333,7241.4445301
26,15,4,AsyncTheta,151,1259_4Hz.avi,guitar43_oneeighty_4Hz.wav,guitar,2,7.20739719999983,1,26,77,151,46,183,2,6,1,5.76115762,75.4513533183333,7248.4693134
26,16,4,SyncTheta,66,1215_4Hz.avi,willow18_zero_4Hz.wav,willow,3,6.02597660000083,0,26,27,66,118,167,2,10,1,5.76115762,75.4513533183333,7258.0277418
26,1,5,SyncTheta,108,1415_4Hz.avi,willow3_zero_4Hz.wav,willow,4,7.93454620000011,0,26,108,120,130,48,1,11,1,6.24171876666667,75.4513533183333,7497.1384711
26,2,5,AsyncTheta,163,1441_4Hz.avi,synth27_oneeighty_4Hz.wav,synth,1,4.8596607999998,1,26,163,50,140,89,1,10,1,6.24171876666667,75.4513533183333,7508.421483
26,3,5,AsyncTheta,168,1204_4Hz.avi,guitar36_oneeighty_4Hz.wav,guitar,1,4.52682499999992,1,26,168,73,172,7,1,2,3,6.24171876666667,75.4513533183333,7515.7129401
26,4,5,AsyncTheta,138,1149_4Hz.avi,ep2_oneeighty_4Hz.wav,ep,1,7.29546579999987,1,26,138,173,99,26,1,15,4,6.24171876666667,75.4513533183333,7523.8213993
26,5,5,SyncTheta,99,1173_4Hz.avi,ep6_zero_4Hz.wav,ep,2,12.9390821999996,0,26,26,173,138,99,4,13,3,6.24171876666667,75.4513533183333,7534.5876029
26,6,5,AsyncTheta,140,1270_4Hz.avi,synth17_oneeighty_4Hz.wav,synth,1,4.39090280000073,1,26,140,89,163,50,1,4,2,6.24171876666667,75.4513533183333,7549.2041291
26,7,5,SyncTheta,73,1369_4Hz.avi,guitar19_zero_4Hz.wav,guitar,2,4.5443494000001,0,26,73,172,7,168,1,14,2,6.24171876666667,75.4513533183333,7556.8539645
26,8,5,SyncTheta,50,1049_4Hz.avi,synth43_zero_4Hz.wav,synth,4,4.37661380000009,1,26,163,89,140,50,4,6,2,6.24171876666667,75.4513533183333,7564.6119398
26,9,5,SyncTheta,26,1190_4Hz.avi,ep7_zero_4Hz.wav,ep,4,7.15817049999987,1,26,173,99,138,26,4,8,3,6.24171876666667,75.4513533183333,7571.9867217
26,10,5,AsyncTheta,120,1365_4Hz.avi,willow21_oneeighty_4Hz.wav,willow,4,9.11627570000019,1,26,108,130,48,120,4,1,2,6.24171876666667,75.4513533183333,7580.9281181
26,11,5,AsyncTheta,130,1081_4Hz.avi,willow5_oneeighty_4Hz.wav,willow,1,4.93061510000007,1,26,130,120,108,48,1,16,2,6.24171876666667,75.4513533183333,7591.70297
26,12,5,SyncTheta,89,1393_4Hz.avi,synth41_zero_4Hz.wav,synth,3,4.87421349999931,1,26,140,163,89,50,3,7,1,6.24171876666667,75.4513533183333,7598.361082
26,13,5,AsyncTheta,172,1350_4Hz.avi,guitar10_oneeighty_4Hz.wav,guitar,1,8.06304319999981,0,26,73,168,172,7,3,9,2,6.24171876666667,75.4513533183333,7605.519494
26,14,5,AsyncTheta,173,1348_4Hz.avi,ep31_oneeighty_4Hz.wav,ep,1,4.6576428999997,1,26,173,138,99,26,1,5,3,6.24171876666667,75.4513533183333,7615.6440893
26,15,5,SyncTheta,7,1017_4Hz.avi,guitar47_zero_4Hz.wav,guitar,4,4.55508949999967,1,26,172,168,73,7,4,3,1,6.24171876666667,75.4513533183333,7622.6523747
26,16,5,SyncTheta,48,1021_4Hz.avi,willow12_zero_4Hz.wav,willow,4,8.70467179999923,0,26,130,48,120,108,2,12,2,6.24171876666667,75.4513533183333,7630.0855877
26,1,6,NoFlickerHalf,30,1016_half_length.avi,orch14_half_length.wav,orch,1,3.03678130000026,1,26,30,141,142,36,1,10,1,5.16333531833333,75.4513533183333,7818.7392572
26,2,6,NoFlickerFull,191,1314_half_amp.avi,dar19_half_amp.wav,dar,2,8.50948629999948,1,26,14,191,34,122,2,12,2,5.16333531833333,75.4513533183333,7825.089331
26,3,6,NoFlickerFull,159,1091_half_amp.avi,choir8_half_amp.wav,choir,2,5.76156649999939,1,26,78,159,69,68,2,1,1,5.16333531833333,75.4513533183333,7836.8638526
26,4,6,NoFlickerHalf,44,1254_half_length.avi,acoustic48_half_length.wav,acoustic,2,3.56994560000021,0,26,190,21,44,148,3,14,1,5.16333531833333,75.4513533183333,7845.4386385
26,5,6,NoFlickerFull,190,1427_half_amp.avi,acoustic46_half_amp.wav,acoustic,2,5.09842209999988,0,26,190,44,148,21,1,11,2,5.16333531833333,75.4513533183333,7851.4718778
26,6,6,NoFlickerHalf,14,1416_half_length.avi,dar1_half_length.wav,dar,3,7.28614910000033,0,26,14,122,34,191,1,4,2,5.16333531833333,75.4513533183333,7858.5216414
26,7,6,NoFlickerFull,78,1301_half_amp.avi,choir11_half_amp.wav,choir,3,4.5920629000002,0,26,159,68,69,78,4,13,2,5.16333531833333,75.4513533183333,7868.9215245
26,8,6,NoFlickerFull,122,1289_half_amp.avi,dar3_half_amp.wav,dar,3,7.72519960000045,1,26,191,14,122,34,3,7,4,5.16333531833333,75.4513533183333,7875.4296921
26,9,6,NoFlickerFull,148,1121_half_amp.avi,acoustic26_half_amp.wav,acoustic,4,4.72324209999988,1,26,44,21,190,148,4,6,3,5.16333531833333,75.4513533183333,7885.39606
26,10,6,NoFlickerFull,141,1401_half_amp.avi,orch12_half_amp.wav,orch,3,7.03391910000028,1,26,30,36,141,142,3,5,3,5.16333531833333,75.4513533183333,7891.7211792
26,11,6,NoFlickerHalf,36,1284_half_length.avi,orch29_half_length.wav,orch,2,4.26238339999964,1,26,141,36,30,142,2,16,2,5.16333531833333,75.4513533183333,7900.6956613
26,12,6,NoFlickerHalf,34,1319_half_length.avi,dar22_half_length.wav,dar,3,6.66089589999956,0,26,191,34,14,122,2,9,3,5.16333531833333,75.4513533183333,7907.4374084
26,13,6,NoFlickerHalf,68,1023_half_length.avi,choir3_half_length.wav,choir,1,3.58053300000029,0,26,78,68,159,69,2,8,2,5.16333531833333,75.4513533183333,7916.0535658
26,14,6,NoFlickerHalf,21,1112_half_length.avi,acoustic32_half_length.wav,acoustic,2,9.40367539999988,0,26,148,190,21,44,3,2,2,5.16333531833333,75.4513533183333,7922.4952778
26,15,6,NoFlickerHalf,69,1216_half_length.avi,choir32_half_length.wav,choir,3,8.77783920000002,0,26,78,69,68,159,2,3,1,5.16333531833333,75.4513533183333,7933.7615768
26,16,6,NoFlickerFull,142,1155_half_amp.avi,orch9_half_amp.wav,orch,3,4.44703309999932,1,26,36,141,142,30,3,15,1,5.16333531833333,75.4513533183333,7944.3779744
26,1,7,NoFlickerHalf,33,1136_half_length.avi,orch38_half_length.wav,orch,2,5.77784799999972,0,26,33,145,165,17,1,8,3,4.93792837166667,75.4513533183333,8129.3318707
26,2,7,NoFlickerHalf,31,1404_half_length.avi,dar8_half_length.wav,dar,1,2.56450000000041,1,26,31,187,56,103,1,14,3,4.93792837166667,75.4513533183333,8137.8319457
26,3,7,NoFlickerFull,181,1168_half_amp.avi,choir1_half_amp.wav,choir,3,4.97902240000076,1,26,38,139,181,19,3,1,2,4.93792837166667,75.4513533183333,8142.8316276
26,4,7,NoFlickerFull,133,1341_half_amp.avi,acoustic14_half_amp.wav,acoustic,1,6.12383169999976,1,26,133,175,47,23,1,11,4,4.93792837166667,75.4513533183333,8150.3149933
26,5,7,NoFlickerFull,175,1103_half_amp.avi,acoustic10_half_amp.wav,acoustic,4,4.07358149999982,1,26,133,23,47,175,4,10,1,4.93792837166667,75.4513533183333,8159.7981387
26,6,7,NoFlickerFull,187,1164_half_amp.avi,dar12_half_amp.wav,dar,3,4.5696568000003,1,26,103,56,187,31,3,5,2,4.93792837166667,75.4513533183333,8166.6061676
26,7,7,NoFlickerFull,139,1192_half_amp.avi,choir5_half_amp.wav,choir,3,5.32934399999976,1,26,181,19,139,38,3,16,2,4.93792837166667,75.4513533183333,8172.9894642
26,8,7,NoFlickerHalf,56,1063_half_length.avi,dar16_half_length.wav,dar,3,4.48088359999929,1,26,31,103,56,187,3,12,1,4.93792837166667,75.4513533183333,8181.4140911
26,9,7,NoFlickerHalf,23,1330_half_length.avi,acoustic47_half_length.wav,acoustic,3,3.78492590000042,1,26,133,47,23,175,3,6,3,4.93792837166667,75.4513533183333,8188.5805969
26,10,7,NoFlickerHalf,17,1162_half_length.avi,orch1_half_length.wav,orch,3,5.73306680000132,0,26,145,33,165,17,4,7,3,4.93792837166667,75.4513533183333,8194.6136849
26,11,7,NoFlickerFull,165,1410_half_amp.avi,orch43_half_amp.wav,orch,4,5.41477020000093,1,26,145,33,17,165,4,15,2,4.93792837166667,75.4513533183333,8202.1052018
26,12,7,NoFlickerFull,103,1084_half_amp.avi,dar20_half_amp.wav,dar,1,4.05080930000076,1,26,103,31,56,187,1,13,2,4.93792837166667,75.4513533183333,8210.9719061
26,13,7,NoFlickerHalf,19,1247_half_length.avi,choir38_half_length.wav,choir,4,8.60675129999981,1,26,139,38,181,19,4,3,3,4.93792837166667,75.4513533183333,8217.4800968
26,14,7,NoFlickerHalf,47,1292_half_length.avi,acoustic28_half_length.wav,acoustic,3,4.52246039999955,1,26,23,133,47,175,3,4,1,4.93792837166667,75.4513533183333,8228.6879695
26,15,7,NoFlickerHalf,38,1184_half_length.avi,choir33_half_length.wav,choir,4,3.32348330000059,1,26,139,181,19,38,4,2,1,4.93792837166667,75.4513533183333,8234.8044527
26,16,7,NoFlickerFull,145,1352_half_amp.avi,orch39_half_amp.wav,orch,4,4.52984449999894,0,26,33,165,145,17,3,9,1,4.93792837166667,75.4513533183333,8240.8212191
26,1,8,AsyncTheta,149,1200_4Hz.avi,willow8_oneeighty_4Hz.wav,willow,1,4.60879489999934,0,26,119,94,18,149,4,3,3,5.65133260166667,75.4513533183333,8440.4330162
26,2,8,SyncTheta,51,1331_4Hz.avi,synth47_zero_4Hz.wav,synth,3,4.14886289999959,1,26,111,131,51,35,3,12,4,5.65133260166667,75.4513533183333,8448.1745002
26,3,8,SyncTheta,84,1294_4Hz.avi,guitar6_zero_4Hz.wav,guitar,1,7.66680189999897,0,26,146,84,90,164,2,4,3,5.65133260166667,75.4513533183333,8454.2909505
26,4,8,SyncTheta,101,1295_4Hz.avi,ep40_zero_4Hz.wav,ep,4,4.81382590000067,1,26,86,132,166,101,4,14,2,5.65133260166667,75.4513533183333,8465.2826014
26,5,8,SyncTheta,86,1278_4Hz.avi,ep35_zero_4Hz.wav,ep,1,8.10828930000025,0,26,166,101,132,86,4,7,3,5.65133260166667,75.4513533183333,8473.174077
26,6,8,AsyncTheta,131,1366_4Hz.avi,synth34_oneeighty_4Hz.wav,synth,2,5.55079689999911,1,26,35,131,111,51,2,5,2,5.65133260166667,75.4513533183333,8484.2736939
26,7,8,SyncTheta,90,1273_4Hz.avi,guitar23_zero_4Hz.wav,guitar,4,10.0114121000006,0,26,90,84,146,164,1,15,2,5.65133260166667,75.4513533183333,8492.8150883
26,8,8,AsyncTheta,111,1390_4Hz.avi,synth3_oneeighty_4Hz.wav,synth,3,4.14904339999885,1,26,131,35,111,51,3,8,5,5.65133260166667,75.4513533183333,8505.4731124
26,9,8,AsyncTheta,132,1356_4Hz.avi,ep30_oneeighty_4Hz.wav,ep,1,4.54894039999999,0,26,86,132,166,101,2,6,4,5.65133260166667,75.4513533183333,8512.7398248
26,10,8,AsyncTheta,119,1189_4Hz.avi,willow11_oneeighty_4Hz.wav,willow,1,6.05452370000057,0,26,18,94,119,149,3,2,3,5.65133260166667,75.4513533183333,8519.5226964
26,11,8,SyncTheta,94,1109_4Hz.avi,willow6_zero_4Hz.wav,willow,1,4.45731200000046,0,26,149,18,119,94,4,16,1,5.65133260166667,75.4513533183333,8527.9643788
26,12,8,SyncTheta,35,1039_4Hz.avi,synth5_zero_4Hz.wav,synth,1,4.22355210000023,1,26,35,51,111,131,1,9,3,5.65133260166667,75.4513533183333,8535.8141987
26,13,8,AsyncTheta,164,1087_4Hz.avi,guitar17_oneeighty_4Hz.wav,guitar,3,11.2028766000003,0,26,84,146,90,164,4,13,2,5.65133260166667,75.4513533183333,8542.9638755
26,14,8,AsyncTheta,166,1227_4Hz.avi,ep5_oneeighty_4Hz.wav,ep,1,8.53432609999982,0,26,132,86,166,101,3,1,2,5.65133260166667,75.4513533183333,8557.4220224
26,15,8,AsyncTheta,146,1005_4Hz.avi,guitar14_oneeighty_4Hz.wav,guitar,3,4.75654020000002,1,26,164,90,146,84,3,10,1,5.65133260166667,75.4513533183333,8568.4552052
26,16,8,SyncTheta,18,1101_4Hz.avi,willow13_zero_4Hz.wav,willow,3,8.72703650000039,0,26,149,18,94,119,2,11,3,5.65133260166667,75.4513533183333,8575.9216987
26,1,9,AsyncTheta,156,1060_4Hz.avi,willow7_oneeighty_4Hz.wav,willow,4,10.0257851999995,0,26,153,92,156,75,3,6,2,6.20214119666667,75.4513533183333,8821.7826527
26,2,9,SyncTheta,54,1181_4Hz.avi,synth12_zero_4Hz.wav,synth,2,6.33528569999908,0,26,186,61,128,54,4,14,2,6.20214119666667,75.4513533183333,8834.9237771
26,3,9,AsyncTheta,115,1370_4Hz.avi,guitar9_oneeighty_4Hz.wav,guitar,1,5.07746129999941,0,26,53,170,115,15,3,1,1,6.20214119666667,75.4513533183333,8844.0986037
26,4,9,SyncTheta,6,1007_4Hz.avi,ep8_zero_4Hz.wav,ep,2,4.59434899999906,1,26,106,6,123,189,2,16,2,6.20214119666667,75.4513533183333,8852.5734491
26,5,9,AsyncTheta,189,1051_4Hz.avi,ep14_oneeighty_4Hz.wav,ep,3,6.22589569536649,0,26,106,189,123,6,2,8,4,6.20214119666667,75.4513533183333,8858.83223160463
26,6,9,SyncTheta,61,1207_4Hz.avi,synth46_zero_4Hz.wav,synth,3,8.39065280000068,0,26,128,61,54,186,2,4,2,6.20214119666667,75.4513533183333,8866.7313227
26,7,9,SyncTheta,53,1197_4Hz.avi,guitar46_zero_4Hz.wav,guitar,3,10.2452274999996,0,26,53,170,115,15,1,15,1,6.20214119666667,75.4513533183333,8877.9313564
26,8,9,AsyncTheta,186,1031_4Hz.avi,synth7_oneeighty_4Hz.wav,synth,4,4.13926480000009,1,26,61,54,128,186,4,9,2,6.20214119666667,75.4513533183333,8891.3891794
26,9,9,AsyncTheta,123,1067_4Hz.avi,ep37_oneeighty_4Hz.wav,ep,2,4.29005010000037,0,26,6,189,106,123,4,5,4,6.20214119666667,75.4513533183333,8897.3225556
26,10,9,SyncTheta,92,1030_4Hz.avi,willow23_zero_4Hz.wav,willow,1,5.08816699999988,1,26,92,75,153,156,1,3,1,6.20214119666667,75.4513533183333,8905.0054423
26,11,9,SyncTheta,75,1040_4Hz.avi,willow17_zero_4Hz.wav,willow,4,4.76679350000086,1,26,153,92,156,75,4,12,2,6.20214119666667,75.4513533183333,8912.8888708
26,12,9,AsyncTheta,128,1269_4Hz.avi,synth14_oneeighty_4Hz.wav,synth,1,4.20709139999963,1,26,128,186,54,61,1,13,3,6.20214119666667,75.4513533183333,8920.3968178
26,13,9,AsyncTheta,170,1062_4Hz.avi,guitar3_oneeighty_4Hz.wav,guitar,1,7.15819040000133,0,26,53,170,115,15,2,11,2,6.20214119666667,75.4513533183333,8927.1216383
26,14,9,SyncTheta,106,1113_4Hz.avi,ep29_zero_4Hz.wav,ep,3,4.36833899999874,1,26,6,123,106,189,3,2,1,6.20214119666667,75.4513533183333,8937.6464374
26,15,9,SyncTheta,15,1422_4Hz.avi,guitar37_zero_4Hz.wav,guitar,4,4.08353580000039,1,26,115,170,53,15,4,10,3,6.20214119666667,75.4513533183333,8945.413152
26,16,9,AsyncTheta,153,1157_4Hz.avi,willow1_oneeighty_4Hz.wav,willow,1,5.34432910000032,0,26,156,92,75,153,4,7,3,6.20214119666667,75.4513533183333,8951.6877497
26,1,10,NoFlickerFull,110,1443_half_amp.avi,orch3_half_amp.wav,orch,2,4.52451040000051,1,26,91,110,74,174,2,3,2,4.95955025666667,75.4513533183333,9128.6421945
26,2,10,NoFlickerHalf,45,1203_half_length.avi,dar2_half_length.wav,dar,3,3.13310790000105,1,26,43,126,45,116,3,14,2,4.95955025666667,75.4513533183333,9136.3167824
26,3,10,NoFlickerFull,98,1014_half_amp.avi,choir41_half_amp.wav,choir,4,6.25080419999904,1,26,12,182,62,98,4,2,3,4.95955025666667,75.4513533183333,9141.0335703
26,4,10,NoFlickerHalf,9,1054_half_length.avi,acoustic44_half_length.wav,acoustic,3,4.81535020000047,0,26,96,9,4,107,2,16,3,4.95955025666667,75.4513533183333,9150.7163549
26,5,10,NoFlickerFull,96,1027_half_amp.avi,acoustic40_half_amp.wav,acoustic,2,6.32585600000129,0,26,107,4,9,96,4,7,2,4.95955025666667,75.4513533183333,9158.3498568
26,6,10,NoFlickerFull,126,1298_half_amp.avi,dar9_half_amp.wav,dar,3,5.30249259999982,1,26,45,116,126,43,3,10,2,4.95955025666667,75.4513533183333,9166.3077634
26,7,10,NoFlickerHalf,12,1077_half_length.avi,choir18_half_length.wav,choir,2,2.87828569999874,1,26,98,12,62,182,2,13,3,4.95955025666667,75.4513533183333,9175.0742862
26,8,10,NoFlickerFull,116,1420_half_amp.avi,dar18_half_amp.wav,dar,2,9.547738199999,0,26,43,45,116,126,3,11,1,4.95955025666667,75.4513533183333,9180.1657983
26,9,10,NoFlickerFull,107,1265_half_amp.avi,acoustic16_half_amp.wav,acoustic,2,11.1446401000012,0,26,4,96,9,107,4,6,2,4.95955025666667,75.4513533183333,9191.5739012
26,10,10,NoFlickerHalf,74,1337_half_length.avi,orch24_half_length.wav,orch,2,3.17577130000063,1,26,110,74,91,174,2,1,2,4.95955025666667,75.4513533183333,9204.4068159
26,11,10,NoFlickerFull,174,1119_half_amp.avi,orch45_half_amp.wav,orch,1,3.98989970000002,1,26,174,91,74,110,1,15,3,4.95955025666667,75.4513533183333,9209.4068839
26,12,10,NoFlickerHalf,43,1141_half_length.avi,dar13_half_length.wav,dar,1,4.03277379999963,1,26,43,45,116,126,1,12,1,4.95955025666667,75.4513533183333,9216.8648923
26,13,10,NoFlickerFull,182,1277_half_amp.avi,choir39_half_amp.wav,choir,4,9.65314310000031,1,26,62,12,98,182,4,9,3,4.95955025666667,75.4513533183333,9224.3564754
26,14,10,NoFlickerHalf,4,1167_half_length.avi,acoustic37_half_length.wav,acoustic,2,6.77472800000032,1,26,96,4,107,9,2,5,3,4.95955025666667,75.4513533183333,9236.3730162
26,15,10,NoFlickerHalf,62,1058_half_length.avi,choir19_half_length.wav,choir,1,3.67272840000078,1,26,62,182,12,98,1,8,2,4.95955025666667,75.4513533183333,9244.8809186
26,16,10,NoFlickerHalf,91,1340_half_length.avi,orch46_half_length.wav,orch,4,2.99271419406796,1,26,74,174,110,91,4,4,1,4.95955025666667,75.4513533183333,9251.83989750593
26,1,11,NoFlickerHalf,81,1444_half_length.avi,orch4_half_length.wav,orch,3,12.6909070000002,0,26,81,143,85,192,1,7,2,5.07791551833333,75.4513533183333,9425.2933872
26,2,11,NoFlickerFull,136,1175_half_amp.avi,dar4_half_amp.wav,dar,2,6.07314419999966,1,26,2,136,154,80,2,16,4,5.07791551833333,75.4513533183333,9439.9431317
26,3,11,NoFlickerHalf,72,1097_half_length.avi,choir29_half_length.wav,choir,4,4.2386017000008,0,26,72,124,13,160,1,1,3,5.07791551833333,75.4513533183333,9448.6930762
26,4,11,NoFlickerFull,169,1083_half_amp.avi,acoustic43_half_amp.wav,acoustic,3,4.27226560000054,1,26,60,39,169,113,3,14,4,5.07791551833333,75.4513533183333,9456.1760748
26,5,11,NoFlickerFull,113,1037_half_amp.avi,acoustic23_half_amp.wav,acoustic,3,7.23711790000016,1,26,60,169,113,39,3,9,3,5.07791551833333,75.4513533183333,9462.4511053
26,6,11,NoFlickerHalf,80,1082_half_length.avi,dar15_half_length.wav,dar,4,5.03700699999899,0,26,80,136,154,2,1,2,1,5.07791551833333,75.4513533183333,9472.8341877
26,7,11,NoFlickerFull,124,1183_half_amp.avi,choir24_half_amp.wav,choir,2,5.26594919999843,1,26,13,124,160,72,2,12,3,5.07791551833333,75.4513533183333,9480.7754827
26,8,11,NoFlickerFull,154,1074_half_amp.avi,dar5_half_amp.wav,dar,2,4.17409570000018,1,26,80,154,2,136,2,10,3,5.07791551833333,75.4513533183333,9489.500285
26,9,11,NoFlickerHalf,39,1061_half_length.avi,acoustic11_half_length.wav,acoustic,2,6.07725940000091,0,26,39,169,60,113,1,8,1,5.07791551833333,75.4513533183333,9497.1166363
26,10,11,NoFlickerHalf,85,1383_half_length.avi,orch23_half_length.wav,orch,3,4.03618649999953,1,26,143,81,85,192,3,6,3,5.07791551833333,75.4513533183333,9505.4915861
26,11,11,NoFlickerFull,143,1127_half_amp.avi,orch11_half_amp.wav,orch,4,8.7985338999988,0,26,143,85,192,81,1,13,3,5.07791551833333,75.4513533183333,9512.5413277
26,12,11,NoFlickerHalf,2,1431_half_length.avi,dar24_half_length.wav,dar,4,4.90113310000015,1,26,154,136,80,2,4,15,4,5.07791551833333,75.4513533183333,9523.9411538
26,13,11,NoFlickerHalf,13,1201_half_length.avi,choir7_half_length.wav,choir,1,7.65152849999868,0,26,160,13,72,124,2,5,1,5.07791551833333,75.4513533183333,9532.1161647
26,14,11,NoFlickerHalf,60,1249_half_length.avi,acoustic20_half_length.wav,acoustic,3,3.86599209999986,0,26,39,60,113,169,2,4,2,5.07791551833333,75.4513533183333,9542.1907064
26,15,11,NoFlickerFull,160,1421_half_amp.avi,choir13_half_amp.wav,choir,2,4.90149070000007,0,26,160,13,124,72,1,3,2,5.07791551833333,75.4513533183333,9548.4489214
26,16,11,NoFlickerFull,192,1231_half_amp.avi,orch32_half_amp.wav,orch,2,4.30764420000014,1,26,81,192,85,143,2,11,3,5.07791551833333,75.4513533183333,9555.4737923
26,1,12,AsyncTheta,178,1057_4Hz.avi,willow9_oneeighty_4Hz.wav,willow,2,7.33354549999967,0,26,55,157,178,22,3,6,3,5.36372151166667,75.4513533183333,9748.877503
26,2,12,AsyncTheta,125,1050_4Hz.avi,synth36_oneeighty_4Hz.wav,synth,3,9.88253389999954,1,26,70,135,125,109,3,14,2,5.36372151166667,75.4513533183333,9757.985826
26,3,12,AsyncTheta,161,1433_4Hz.avi,guitar2_oneeighty_4Hz.wav,guitar,3,7.02041049999934,0,26,3,161,179,93,2,5,2,5.36372151166667,75.4513533183333,9769.7105149
26,4,12,SyncTheta,65,1013_4Hz.avi,ep22_zero_4Hz.wav,ep,4,7.21817279999959,1,26,117,25,180,65,4,12,2,5.36372151166667,75.4513533183333,9778.5851395
26,5,12,SyncTheta,25,1094_4Hz.avi,ep15_zero_4Hz.wav,ep,4,4.10773809999955,1,26,180,65,117,25,4,11,2,5.36372151166667,75.4513533183333,9789.168286
26,6,12,AsyncTheta,135,1154_4Hz.avi,synth38_oneeighty_4Hz.wav,synth,4,6.28335539999898,1,26,125,109,70,135,4,1,3,5.36372151166667,75.4513533183333,9795.9017232
26,7,12,SyncTheta,3,1156_4Hz.avi,guitar31_zero_4Hz.wav,guitar,2,4.3135416999994,1,26,161,3,93,179,2,16,3,5.36372151166667,75.4513533183333,9803.892995
26,8,12,SyncTheta,70,1093_4Hz.avi,synth6_zero_4Hz.wav,synth,2,6.03956060000019,0,26,70,109,135,125,1,2,2,5.36372151166667,75.4513533183333,9811.4928383
26,9,12,AsyncTheta,180,1006_4Hz.avi,ep4_oneeighty_4Hz.wav,ep,1,7.64087120000113,1,26,180,25,117,65,1,7,2,5.36372151166667,75.4513533183333,9819.4676207
26,10,12,SyncTheta,55,1044_4Hz.avi,willow4_zero_4Hz.wav,willow,1,6.15992770000048,0,26,157,22,55,178,3,3,3,5.36372151166667,75.4513533183333,9830.0090642
26,11,12,AsyncTheta,157,1225_4Hz.avi,willow14_oneeighty_4Hz.wav,willow,1,4.88855469999908,0,26,22,178,157,55,3,13,1,5.36372151166667,75.4513533183333,9839.5589144
26,12,12,SyncTheta,109,1299_4Hz.avi,synth18_zero_4Hz.wav,synth,2,5.71131810000043,0,26,70,125,135,109,4,9,3,5.36372151166667,75.4513533183333,9846.7169246
26,13,12,SyncTheta,93,1046_4Hz.avi,guitar18_zero_4Hz.wav,guitar,2,4.26829280000129,1,26,179,93,161,3,2,15,2,5.36372151166667,75.4513533183333,9854.6084096
26,14,12,AsyncTheta,117,1144_4Hz.avi,ep39_oneeighty_4Hz.wav,ep,2,5.6676421000011,0,26,117,180,65,25,1,4,1,5.36372151166667,75.4513533183333,9860.9500194
26,15,12,AsyncTheta,179,1186_4Hz.avi,guitar30_oneeighty_4Hz.wav,guitar,3,5.36571850000109,1,26,161,3,179,93,3,8,2,5.36372151166667,75.4513533183333,9868.3081921
26,16,12,SyncTheta,22,1212_4Hz.avi,willow20_zero_4Hz.wav,willow,4,4.99241040000015,0,26,157,178,22,55,3,10,3,5.36372151166667,75.4513533183333,9876.8828668
