ParticipantID,TrialNumber,BlockNumber,Condition,ClipID,VideoFile,SoundFile,SoundCategory,Response,RT,Accuracy,ConditionID,Frame1,Frame2,Frame3,Frame4,CorrectKey,EncodingPosition,Rating,BlockDuration,ExperimentDuration,MemoryTestOnset
10,1,1,SyncTheta,37,1237_4Hz.avi,willow15_zero_4Hz.wav,willow,3,4.62952760000007,1,10,171,32,37,152,3,9,3,8.707679855,56.47205206,809.5227116
10,2,1,AsyncTheta,185,1131_4Hz.avi,guitar45_oneeighty_4Hz.wav,guitar,2,3.61320819999992,1,10,112,185,59,67,2,11,1,8.707679855,56.47205206,817.6227459
10,3,1,SyncTheta,87,1142_4Hz.avi,ep3_zero_4Hz.wav,ep,2,7.50685650000003,1,10,41,87,176,150,2,4,4,8.707679855,56.47205206,823.9812564
10,4,1,AsyncTheta,152,1445_4Hz.avi,willow2_oneeighty_4Hz.wav,willow,3,7.73203920000003,0,10,152,32,37,171,1,12,2,8.707679855,56.47205206,834.4480267
10,5,1,AsyncTheta,176,1405_4Hz.avi,ep46_oneeighty_4Hz.wav,ep,2,4.73838210000008,0,10,150,41,176,87,3,15,2,8.707679855,56.47205206,844.465075
10,6,1,AsyncTheta,155,1042_4Hz.avi,synth10_oneeighty_4Hz.wav,synth,1,5.86757120000004,0,10,127,8,71,155,4,5,1,8.707679855,56.47205206,851.8482699
10,7,1,AsyncTheta,112,1388_4Hz.avi,guitar39_oneeighty_4Hz.wav,guitar,3,4.37747790000003,1,10,185,67,112,59,3,8,3,8.707679855,56.47205206,859.6399189
10,8,1,SyncTheta,67,1310_4Hz.avi,guitar21_zero_4Hz.wav,guitar,4,2.8002735,1,10,59,185,112,67,4,2,3,8.707679855,56.47205206,866.3570213
10,9,1,AsyncTheta,127,1411_4Hz.avi,synth28_oneeighty_4Hz.wav,synth,1,3.60383530000001,1,10,127,155,8,71,1,3,1,8.707679855,56.47205206,870.7652947
10,10,1,SyncTheta,41,1132_4Hz.avi,ep10_zero_4Hz.wav,ep,2,3.44667819999995,0,10,150,87,176,41,4,6,2,8.707679855,56.47205206,877.5154942
10,11,1,SyncTheta,32,1360_4Hz.avi,willow10_zero_4Hz.wav,willow,2,4.16345809999996,1,10,37,32,152,171,2,16,3,8.707679855,56.47205206,883.2652484
10,12,1,SyncTheta,59,1346_4Hz.avi,guitar33_zero_4Hz.wav,guitar,3,4.15902179999989,1,10,67,112,59,185,3,7,2,8.707679855,56.47205206,891.0488661
10,13,1,SyncTheta,71,1076_4Hz.avi,synth21_zero_4Hz.wav,synth,1,4.49167049999994,1,10,71,8,127,155,1,10,1,8.707679855,56.47205206,897.3073834
10,14,1,AsyncTheta,150,1394_4Hz.avi,ep11_oneeighty_4Hz.wav,ep,3,3.81431190000001,0,10,176,87,41,150,4,13,1,8.707679855,56.47205206,904.7404106
10,15,1,AsyncTheta,171,1280_4Hz.avi,willow19_oneeighty_4Hz.wav,willow,1,4.82406639999999,0,10,152,32,37,171,4,14,3,8.707679855,56.47205206,911.1568884
10,16,1,SyncTheta,8,1252_4Hz.avi,synth25_zero_4Hz.wav,synth,4,2.83775439999999,1,10,127,71,155,8,4,1,4,8.707679855,56.47205206,918.8983058
10,1,2,NoFlickerHalf,102,1012_half_length.avi,orch18_half_length.wav,orch,4,4.70423090000008,0,10,102,158,28,188,1,2,4,4.34265046333333,56.47205206,1066.8527663
10,2,2,NoFlickerHalf,63,1128_half_length.avi,choir26_half_length.wav,choir,4,7.01845039999989,1,10,121,97,52,63,4,16,3,4.34265046333333,56.47205206,1075.0856134
10,3,2,NoFlickerFull,79,1071_half_amp.avi,acoustic17_half_amp.wav,acoustic,4,11.8842761000001,1,10,105,5,20,79,4,1,5,4.34265046333333,56.47205206,1085.6104484
10,4,2,NoFlickerFull,188,1036_half_amp.avi,orch26_half_amp.wav,orch,2,4.17830300000014,1,10,158,188,102,28,2,3,5,4.34265046333333,56.47205206,1099.4349418
10,5,2,NoFlickerHalf,20,1236_half_length.avi,acoustic25_half_length.wav,acoustic,3,3.92278390000001,1,10,79,105,20,5,3,13,4,4.34265046333333,56.47205206,1107.0516318
10,6,2,NoFlickerHalf,40,1239_half_length.avi,dar6_half_length.wav,dar,2,5.78956429999994,0,10,40,64,147,114,1,11,1,4.34265046333333,56.47205206,1114.3179147
10,7,2,NoFlickerFull,97,1368_half_amp.avi,choir30_half_amp.wav,choir,2,6.62389580000013,1,10,63,97,52,121,2,15,4,4.34265046333333,56.47205206,1122.0762897
10,8,2,NoFlickerFull,121,1354_half_amp.avi,choir22_half_amp.wav,choir,1,1.47442060000003,1,10,121,97,52,63,1,5,1,4.34265046333333,56.47205206,1131.5758076
10,9,2,NoFlickerFull,147,1304_half_amp.avi,dar10_half_amp.wav,dar,2,3.82971369999996,1,10,64,147,40,114,2,8,1,4.34265046333333,56.47205206,1136.3089342
10,10,2,NoFlickerFull,105,1003_half_amp.avi,acoustic6_half_amp.wav,acoustic,3,3.53810969999995,0,10,105,5,79,20,1,4,3,4.34265046333333,56.47205206,1143.0755495
10,11,2,NoFlickerFull,158,1206_half_amp.avi,orch6_half_amp.wav,orch,2,2.19551980000006,1,10,28,158,102,188,2,12,3,4.34265046333333,56.47205206,1149.5418988
10,12,2,NoFlickerHalf,52,1387_half_length.avi,choir2_half_length.wav,choir,4,2.78942260000008,0,10,97,52,63,121,2,9,1,4.34265046333333,56.47205206,1153.383496
10,13,2,NoFlickerHalf,64,1098_half_length.avi,dar11_half_length.wav,dar,3,3.97254900000007,0,10,147,64,114,40,2,14,2,4.34265046333333,56.47205206,1159.1835452
10,14,2,NoFlickerHalf,5,1381_half_length.avi,acoustic1_half_length.wav,acoustic,1,4.97293809999996,0,10,79,5,105,20,2,6,2,4.34265046333333,56.47205206,1164.9580813
10,15,2,NoFlickerHalf,28,1148_half_length.avi,orch19_half_length.wav,orch,4,3.67862629999991,1,10,102,188,158,28,4,10,3,4.34265046333333,56.47205206,1172.716394
10,16,2,NoFlickerFull,114,1322_half_amp.avi,dar14_half_amp.wav,dar,2,3.37602300000003,1,10,147,114,40,64,2,7,2,4.34265046333333,56.47205206,1179.1414084
10,1,3,NoFlickerHalf,42,1339_half_length.avi,orch31_half_length.wav,orch,2,5.06696420000003,0,10,134,137,42,57,3,2,3,4.04090811666667,56.47205206,1323.9870771
10,2,3,NoFlickerHalf,11,1448_half_length.avi,choir36_half_length.wav,choir,1,4.25537319999989,0,10,10,88,76,11,4,8,3,4.04090811666667,56.47205206,1331.2785586
10,3,3,NoFlickerFull,83,1139_half_amp.avi,acoustic27_half_amp.wav,acoustic,3,10.1137974999999,1,10,1,104,83,58,3,9,4,4.04090811666667,56.47205206,1338.9536094
10,4,3,NoFlickerFull,137,1303_half_amp.avi,orch10_half_amp.wav,orch,1,3.40130339999996,0,10,134,42,137,57,3,5,4,4.04090811666667,56.47205206,1352.1614271
10,5,3,NoFlickerHalf,58,1323_half_length.avi,acoustic29_half_length.wav,acoustic,2,2.60887739999998,1,10,104,58,1,83,2,15,2,4.04090811666667,56.47205206,1358.577836
10,6,3,NoFlickerFull,162,1358_half_amp.avi,dar7_half_amp.wav,dar,1,2.24097499999993,1,10,162,49,29,82,1,12,3,4.04090811666667,56.47205206,1362.9109951
10,7,3,NoFlickerHalf,10,1179_half_length.avi,choir4_half_length.wav,choir,2,6.91029750000007,1,10,88,10,11,76,2,6,1,4.04090811666667,56.47205206,1367.7359279
10,8,3,NoFlickerFull,76,1293_half_amp.avi,choir23_half_amp.wav,choir,4,2.19058539999992,1,10,10,11,88,76,4,1,1,4.04090811666667,56.47205206,1377.3023135
10,9,3,NoFlickerHalf,49,1221_half_length.avi,dar21_half_length.wav,dar,1,3.33507289999989,0,10,29,162,82,49,4,7,1,4.04090811666667,56.47205206,1381.3188626
10,10,3,NoFlickerHalf,1,1064_half_length.avi,acoustic12_half_length.wav,acoustic,1,3.39977149999982,1,10,1,58,83,104,1,10,5,4.04090811666667,56.47205206,1386.452048
10,11,3,NoFlickerHalf,57,1309_half_length.avi,orch7_half_length.wav,orch,1,3.11800979999998,1,10,57,134,137,42,1,13,3,4.04090811666667,56.47205206,1392.3352535
10,12,3,NoFlickerFull,88,1191_half_amp.avi,choir20_half_amp.wav,choir,2,3.52662379999992,0,10,10,76,88,11,3,4,4,4.04090811666667,56.47205206,1398.6850612
10,13,3,NoFlickerFull,82,1449_half_amp.avi,dar17_half_amp.wav,dar,2,3.17647360000001,1,10,49,82,29,162,2,16,4,4.04090811666667,56.47205206,1403.8182839
10,14,3,NoFlickerFull,104,1111_half_amp.avi,acoustic31_half_amp.wav,acoustic,2,4.17576589999999,1,10,83,104,58,1,2,14,4,4.04090811666667,56.47205206,1409.5015572
10,15,3,NoFlickerFull,134,1026_half_amp.avi,orch16_half_amp.wav,orch,1,2.60133620000011,1,10,134,137,57,42,1,11,3,4.04090811666667,56.47205206,1417.1429546
10,16,3,NoFlickerHalf,29,1158_half_length.avi,dar23_half_length.wav,dar,2,2.41188309999984,0,10,29,49,82,162,1,3,2,4.04090811666667,56.47205206,1422.7429967
10,1,4,AsyncTheta,167,1177_4Hz.avi,willow24_oneeighty_4Hz.wav,willow,2,8.26439970000001,1,10,66,167,27,118,2,6,2,4.64998293,56.47205206,1586.60501
10,2,4,SyncTheta,77,1008_4Hz.avi,guitar42_zero_4Hz.wav,guitar,2,4.17071910000004,0,10,77,151,46,183,1,16,1,4.64998293,56.47205206,1597.7880756
10,3,4,AsyncTheta,177,1283_4Hz.avi,ep38_oneeighty_4Hz.wav,ep,2,3.47935710000002,1,10,144,177,16,24,2,3,5,4.64998293,56.47205206,1605.16309
10,4,4,AsyncTheta,118,1020_4Hz.avi,willow22_oneeighty_4Hz.wav,willow,1,6.11397499999998,0,10,167,27,66,118,4,8,1,4.64998293,56.47205206,1611.5629165
10,5,4,SyncTheta,16,1442_4Hz.avi,ep34_zero_4Hz.wav,ep,4,4.50466019999999,0,10,16,144,177,24,1,9,2,4.64998293,56.47205206,1621.1957001
10,6,4,SyncTheta,100,1107_4Hz.avi,synth23_zero_4Hz.wav,synth,4,2.58626869999989,1,10,129,95,184,100,4,12,1,4.64998293,56.47205206,1628.9706251
10,7,4,AsyncTheta,183,1374_4Hz.avi,guitar16_oneeighty_4Hz.wav,guitar,1,3.93459180000013,1,10,183,151,77,46,1,13,2,4.64998293,56.47205206,1633.8455533
10,8,4,AsyncTheta,151,1259_4Hz.avi,guitar43_oneeighty_4Hz.wav,guitar,1,3.21699960000001,1,10,151,183,46,77,1,2,3,4.64998293,56.47205206,1639.9871604
10,9,4,AsyncTheta,184,1052_4Hz.avi,synth40_oneeighty_4Hz.wav,synth,4,5.50409250000007,1,10,100,95,129,184,4,10,2,4.64998293,56.47205206,1646.0367531
10,10,4,SyncTheta,24,1217_4Hz.avi,ep44_zero_4Hz.wav,ep,4,5.71596550000004,0,10,144,24,177,16,2,4,1,4.64998293,56.47205206,1653.4951933
10,11,4,SyncTheta,66,1215_4Hz.avi,willow18_zero_4Hz.wav,willow,3,3.78108629999997,1,10,167,118,66,27,3,15,3,4.64998293,56.47205206,1662.5780593
10,12,4,SyncTheta,46,1210_4Hz.avi,guitar48_zero_4Hz.wav,guitar,3,4.66994509999995,0,10,46,151,77,183,1,7,1,4.64998293,56.47205206,1669.3030351
10,13,4,AsyncTheta,129,1286_4Hz.avi,synth30_oneeighty_4Hz.wav,synth,1,6.2836213999999,1,10,129,95,100,184,1,14,3,4.64998293,56.47205206,1676.7194841
10,14,4,AsyncTheta,144,1255_4Hz.avi,ep28_oneeighty_4Hz.wav,ep,4,3.41749870000012,1,10,16,24,177,144,4,5,2,4.64998293,56.47205206,1685.3609404
10,15,4,SyncTheta,27,1202_4Hz.avi,willow16_zero_4Hz.wav,willow,2,3.58497629999988,1,10,167,27,66,118,2,11,1,4.64998293,56.47205206,1692.1855421
10,16,4,SyncTheta,95,1359_4Hz.avi,synth33_zero_4Hz.wav,synth,1,6.15634780000005,1,10,95,184,129,100,1,1,4,4.64998293,56.47205206,1698.1605941
10,1,5,AsyncTheta,130,1081_4Hz.avi,willow5_oneeighty_4Hz.wav,willow,3,5.02533220000009,1,10,48,108,130,120,3,2,3,4.344406945,56.47205206,1861.2728854
10,2,5,AsyncTheta,168,1204_4Hz.avi,guitar36_oneeighty_4Hz.wav,guitar,1,1.85917229999995,1,10,168,73,7,172,1,15,1,4.344406945,56.47205206,1869.0807387
10,3,5,AsyncTheta,173,1348_4Hz.avi,ep31_oneeighty_4Hz.wav,ep,2,7.10384759999988,1,10,99,173,26,138,2,1,3,4.344406945,56.47205206,1872.7725926
10,4,5,SyncTheta,108,1415_4Hz.avi,willow3_zero_4Hz.wav,willow,1,7.22641149999981,0,10,48,130,108,120,3,4,1,4.344406945,56.47205206,1882.0555025
10,5,5,SyncTheta,26,1190_4Hz.avi,ep7_zero_4Hz.wav,ep,4,3.64801620000003,0,10,173,26,138,99,2,16,4,4.344406945,56.47205206,1891.1802033
10,6,5,AsyncTheta,163,1441_4Hz.avi,synth27_oneeighty_4Hz.wav,synth,2,4.43536629999994,1,10,140,163,50,89,2,9,1,4.344406945,56.47205206,1897.8965886
10,7,5,AsyncTheta,172,1350_4Hz.avi,guitar10_oneeighty_4Hz.wav,guitar,2,3.63392290000002,0,10,7,73,172,168,3,11,1,4.344406945,56.47205206,1905.388147
10,8,5,SyncTheta,73,1369_4Hz.avi,guitar19_zero_4Hz.wav,guitar,2,3.35204069999986,0,10,73,7,172,168,1,5,2,4.344406945,56.47205206,1910.7549097
10,9,5,SyncTheta,89,1393_4Hz.avi,synth41_zero_4Hz.wav,synth,3,4.28768979999995,0,10,163,50,140,89,4,7,1,4.344406945,56.47205206,1916.9962075
10,10,5,SyncTheta,99,1173_4Hz.avi,ep6_zero_4Hz.wav,ep,2,5.09316130000002,1,10,173,99,138,26,2,6,3,4.344406945,56.47205206,1923.2376813
10,11,5,SyncTheta,48,1021_4Hz.avi,willow12_zero_4Hz.wav,willow,2,2.52344650000009,0,10,48,130,120,108,1,13,2,4.344406945,56.47205206,1931.5291498
10,12,5,SyncTheta,7,1017_4Hz.avi,guitar47_zero_4Hz.wav,guitar,2,3.52311279999981,0,10,168,73,172,7,4,8,1,4.344406945,56.47205206,1937.0042436
10,13,5,SyncTheta,50,1049_4Hz.avi,synth43_zero_4Hz.wav,synth,3,3.85579710000002,1,10,89,163,50,140,3,12,3,4.344406945,56.47205206,1943.0289375
10,14,5,AsyncTheta,138,1149_4Hz.avi,ep2_oneeighty_4Hz.wav,ep,3,3.77129239999999,0,10,173,138,99,26,2,14,4,4.344406945,56.47205206,1949.3952959
10,15,5,AsyncTheta,120,1365_4Hz.avi,willow21_oneeighty_4Hz.wav,willow,3,2.52639079999994,1,10,48,130,120,108,3,10,2,4.344406945,56.47205206,1954.8784157
10,16,5,AsyncTheta,140,1270_4Hz.avi,synth17_oneeighty_4Hz.wav,synth,1,4.91907050000009,1,10,140,163,89,50,1,3,2,4.344406945,56.47205206,1960.2785869
10,1,6,NoFlickerHalf,30,1016_half_length.avi,orch14_half_length.wav,orch,2,6.71718090000013,1,10,36,30,141,142,2,5,2,4.27190974833333,56.47205206,2108.3995173
10,2,6,NoFlickerHalf,68,1023_half_length.avi,choir3_half_length.wav,choir,1,6.62974159999976,1,10,68,69,78,159,1,14,1,4.27190974833333,56.47205206,2118.3243768
10,3,6,NoFlickerHalf,21,1112_half_length.avi,acoustic32_half_length.wav,acoustic,1,7.58727719999979,0,10,148,44,21,190,3,1,3,4.27190974833333,56.47205206,2128.4155288
10,4,6,NoFlickerFull,141,1401_half_amp.avi,orch12_half_amp.wav,orch,4,5.30462960000023,1,10,142,36,30,141,4,8,5,4.27190974833333,56.47205206,2139.4404756
10,5,6,NoFlickerHalf,44,1254_half_length.avi,acoustic48_half_length.wav,acoustic,4,3.95022280000012,0,10,148,44,190,21,2,15,3,4.27190974833333,56.47205206,2147.6902492
10,6,6,NoFlickerFull,191,1314_half_amp.avi,dar19_half_amp.wav,dar,1,3.63823899999988,1,10,191,14,34,122,1,9,4,4.27190974833333,56.47205206,2153.2316461
10,7,6,NoFlickerHalf,69,1216_half_length.avi,choir32_half_length.wav,choir,1,3.16393970000036,1,10,69,78,159,68,1,13,3,4.27190974833333,56.47205206,2158.4563387
10,8,6,NoFlickerFull,159,1091_half_amp.avi,choir8_half_amp.wav,choir,3,1.54600419999997,1,10,78,68,159,69,3,6,1,4.27190974833333,56.47205206,2163.5478729
10,9,6,NoFlickerHalf,34,1319_half_length.avi,dar22_half_length.wav,dar,1,4.91440429999966,0,10,122,14,191,34,4,4,2,4.27190974833333,56.47205206,2167.3644106
10,10,6,NoFlickerFull,148,1121_half_amp.avi,acoustic26_half_amp.wav,acoustic,2,3.23104620000004,1,10,21,148,44,190,2,2,4,4.27190974833333,56.47205206,2175.5976165
10,11,6,NoFlickerHalf,36,1284_half_length.avi,orch29_half_length.wav,orch,2,5.2201941000003,1,10,142,36,30,141,2,16,1,4.27190974833333,56.47205206,2181.047683
10,12,6,NoFlickerFull,78,1301_half_amp.avi,choir11_half_amp.wav,choir,1,4.86898049999991,1,10,78,69,68,159,1,7,3,4.27190974833333,56.47205206,2188.8556211
10,13,6,NoFlickerHalf,14,1416_half_length.avi,dar1_half_length.wav,dar,1,6.1455490000003,1,10,14,122,34,191,1,10,3,4.27190974833333,56.47205206,2196.238736
10,14,6,NoFlickerFull,190,1427_half_amp.avi,acoustic46_half_amp.wav,acoustic,2,3.30323969999972,1,10,44,190,21,148,2,12,4,4.27190974833333,56.47205206,2204.6468997
10,15,6,NoFlickerFull,142,1155_half_amp.avi,orch9_half_amp.wav,orch,3,4.63627159999987,0,10,30,142,141,36,2,11,3,4.27190974833333,56.47205206,2210.8883664
10,16,6,NoFlickerFull,122,1289_half_amp.avi,dar3_half_amp.wav,dar,2,3.8429999,0,10,191,34,122,14,3,3,4,4.27190974833333,56.47205206,2217.8965182
10,1,7,NoFlickerFull,145,1352_half_amp.avi,orch39_half_amp.wav,orch,4,6.60596799999985,1,10,165,33,17,145,4,5,4,4.21985683,56.47205206,2371.5590498
10,2,7,NoFlickerFull,139,1192_half_amp.avi,choir5_half_amp.wav,choir,4,4.02268839999988,0,10,139,19,38,181,1,14,2,4.21985683,56.47205206,2380.3007283
10,3,7,NoFlickerHalf,23,1330_half_length.avi,acoustic47_half_length.wav,acoustic,1,4.18874380000034,1,10,23,47,133,175,1,1,4,4.21985683,56.47205206,2386.2587289
10,4,7,NoFlickerHalf,33,1136_half_length.avi,orch38_half_length.wav,orch,1,2.87082029999965,1,10,33,17,165,145,1,7,3,4.21985683,56.47205206,2392.1668914
10,5,7,NoFlickerHalf,47,1292_half_length.avi,acoustic28_half_length.wav,acoustic,1,3.93378629999961,1,10,47,23,133,175,1,6,1,4.21985683,56.47205206,2398.0250417
10,6,7,NoFlickerFull,187,1164_half_amp.avi,dar12_half_amp.wav,dar,3,4.69323159999976,1,10,56,31,187,103,3,10,3,4.21985683,56.47205206,2404.4081805
10,7,7,NoFlickerHalf,38,1184_half_length.avi,choir33_half_length.wav,choir,3,5.80037549999997,1,10,181,19,38,139,3,13,1,4.21985683,56.47205206,2412.48296
10,8,7,NoFlickerHalf,19,1247_half_length.avi,choir38_half_length.wav,choir,4,7.16143629999988,1,10,139,181,38,19,4,4,3,4.21985683,56.47205206,2421.2829751
10,9,7,NoFlickerHalf,56,1063_half_length.avi,dar16_half_length.wav,dar,4,4.97314769999957,0,10,187,56,31,103,2,9,1,4.21985683,56.47205206,2430.1241146
10,10,7,NoFlickerFull,175,1103_half_amp.avi,acoustic10_half_amp.wav,acoustic,4,3.30990830000019,0,10,175,23,47,133,1,2,2,4.21985683,56.47205206,2436.740915
10,11,7,NoFlickerHalf,17,1162_half_length.avi,orch1_half_length.wav,orch,2,3.62083919999986,1,10,33,17,145,165,2,16,1,4.21985683,56.47205206,2443.2989001
10,12,7,NoFlickerFull,181,1168_half_amp.avi,choir1_half_amp.wav,choir,3,3.75044919999982,0,10,181,38,139,19,1,12,4,4.21985683,56.47205206,2450.3072182
10,13,7,NoFlickerHalf,31,1404_half_length.avi,dar8_half_length.wav,dar,3,1.7023492999997,1,10,103,187,31,56,3,11,4,4.21985683,56.47205206,2456.1404031
10,14,7,NoFlickerFull,133,1341_half_amp.avi,acoustic14_half_amp.wav,acoustic,2,3.48991320000005,0,10,23,175,133,47,3,3,5,4.21985683,56.47205206,2460.0067624
10,15,7,NoFlickerFull,165,1410_half_amp.avi,orch43_half_amp.wav,orch,1,1.91766760000019,1,10,165,17,145,33,1,15,1,4.21985683,56.47205206,2465.7066382
10,16,7,NoFlickerFull,103,1084_half_amp.avi,dar20_half_amp.wav,dar,1,4.39496989999998,1,10,103,31,56,187,1,8,3,4.21985683,56.47205206,2470.7398065
10,1,8,SyncTheta,18,1101_4Hz.avi,willow13_zero_4Hz.wav,willow,2,5.55054900000005,0,10,18,119,149,94,1,7,2,4.4847542,56.47205206,2630.2188026
10,2,8,AsyncTheta,164,1087_4Hz.avi,guitar17_oneeighty_4Hz.wav,guitar,4,3.53569520000019,1,10,90,146,84,164,4,15,2,4.4847542,56.47205206,2638.8353223
10,3,8,SyncTheta,86,1278_4Hz.avi,ep35_zero_4Hz.wav,ep,2,5.24746989999994,0,10,101,132,86,166,3,2,4,4.4847542,56.47205206,2644.9768252
10,4,8,SyncTheta,94,1109_4Hz.avi,willow6_zero_4Hz.wav,willow,4,5.62981940000009,0,10,119,94,18,149,2,8,3,4.4847542,56.47205206,2652.6932659
10,5,8,AsyncTheta,166,1227_4Hz.avi,ep5_oneeighty_4Hz.wav,ep,4,8.55775859999994,0,10,166,132,101,86,1,16,4,4.4847542,56.47205206,2660.7515564
10,6,8,AsyncTheta,131,1366_4Hz.avi,synth34_oneeighty_4Hz.wav,synth,4,4.64360390000002,0,10,111,131,35,51,2,6,2,4.4847542,56.47205206,2670.9594563
10,7,8,SyncTheta,84,1294_4Hz.avi,guitar6_zero_4Hz.wav,guitar,3,5.42853730000024,1,10,90,164,84,146,3,14,2,4.4847542,56.47205206,2677.3843146
10,8,8,AsyncTheta,146,1005_4Hz.avi,guitar14_oneeighty_4Hz.wav,guitar,3,4.16131069999983,0,10,164,84,90,146,4,1,2,4.4847542,56.47205206,2685.2176697
10,9,8,SyncTheta,51,1331_4Hz.avi,synth47_zero_4Hz.wav,synth,2,2.68882320000012,1,10,111,51,35,131,2,4,1,4.4847542,56.47205206,2691.308937
10,10,8,AsyncTheta,132,1356_4Hz.avi,ep30_oneeighty_4Hz.wav,ep,1,3.74544709999964,0,10,101,166,86,132,4,9,2,4.4847542,56.47205206,2696.708864
10,11,8,AsyncTheta,149,1200_4Hz.avi,willow8_oneeighty_4Hz.wav,willow,4,6.97664399999985,0,10,94,119,149,18,3,13,2,4.4847542,56.47205206,2704.0088348
10,12,8,SyncTheta,90,1273_4Hz.avi,guitar23_zero_4Hz.wav,guitar,4,4.6792931,0,10,84,164,90,146,3,5,2,4.4847542,56.47205206,2713.9333311
10,13,8,AsyncTheta,111,1390_4Hz.avi,synth3_oneeighty_4Hz.wav,synth,4,2.89311799999996,1,10,51,35,131,111,4,12,2,4.4847542,56.47205206,2720.4914536
10,14,8,SyncTheta,101,1295_4Hz.avi,ep40_zero_4Hz.wav,ep,2,3.83046280000008,1,10,132,101,86,166,2,11,2,4.4847542,56.47205206,2725.1916003
10,15,8,AsyncTheta,119,1189_4Hz.avi,willow11_oneeighty_4Hz.wav,willow,4,5.11983580000015,1,10,94,18,149,119,4,10,3,4.4847542,56.47205206,2730.9411277
10,16,8,SyncTheta,35,1039_4Hz.avi,synth5_zero_4Hz.wav,synth,1,4.79868959999976,1,10,35,131,51,111,1,3,3,4.4847542,56.47205206,2739.6326981
10,1,9,AsyncTheta,156,1060_4Hz.avi,willow7_oneeighty_4Hz.wav,willow,2,5.61029030000009,1,10,92,156,75,153,2,1,4,4.38006969833333,56.47205206,2898.4868725
10,2,9,AsyncTheta,170,1062_4Hz.avi,guitar3_oneeighty_4Hz.wav,guitar,1,7.32739570000012,0,10,115,170,15,53,2,14,2,4.38006969833333,56.47205206,2906.0283995
10,3,9,SyncTheta,106,1113_4Hz.avi,ep29_zero_4Hz.wav,ep,3,4.41110069999968,1,10,6,123,106,189,3,4,2,4.38006969833333,56.47205206,2916.5948907
10,4,9,SyncTheta,92,1030_4Hz.avi,willow23_zero_4Hz.wav,willow,1,4.05481689999988,1,10,92,75,153,156,1,2,2,4.38006969833333,56.47205206,2922.8279714
10,5,9,AsyncTheta,123,1067_4Hz.avi,ep37_oneeighty_4Hz.wav,ep,1,3.16312909999988,1,10,123,6,189,106,1,15,3,4.38006969833333,56.47205206,2930.2859987
10,6,9,AsyncTheta,128,1269_4Hz.avi,synth14_oneeighty_4Hz.wav,synth,3,2.56596600000012,1,10,186,61,128,54,3,12,2,4.38006969833333,56.47205206,2936.9107429
10,7,9,SyncTheta,53,1197_4Hz.avi,guitar46_zero_4Hz.wav,guitar,4,4.23091380000005,1,10,115,15,170,53,4,11,1,4.38006969833333,56.47205206,2941.394233
10,8,9,SyncTheta,15,1422_4Hz.avi,guitar37_zero_4Hz.wav,guitar,1,2.14053490000015,1,10,15,115,170,53,1,5,3,4.38006969833333,56.47205206,2948.6940164
10,9,9,SyncTheta,54,1181_4Hz.avi,synth12_zero_4Hz.wav,synth,3,3.30175529999997,1,10,186,61,54,128,3,8,1,4.38006969833333,56.47205206,2952.4939224
10,10,9,SyncTheta,6,1007_4Hz.avi,ep8_zero_4Hz.wav,ep,2,6.3015634999997,0,10,106,189,123,6,4,7,3,4.38006969833333,56.47205206,2959.1685209
10,11,9,AsyncTheta,153,1157_4Hz.avi,willow1_oneeighty_4Hz.wav,willow,3,2.75897099999975,1,10,75,156,153,92,3,10,3,4.38006969833333,56.47205206,2968.2101894
10,12,9,AsyncTheta,115,1370_4Hz.avi,guitar9_oneeighty_4Hz.wav,guitar,3,5.14572869999984,1,10,170,15,115,53,3,9,1,4.38006969833333,56.47205206,2974.5100185
10,13,9,SyncTheta,61,1207_4Hz.avi,synth46_zero_4Hz.wav,synth,2,4.38748959999975,0,10,54,186,128,61,4,16,1,4.38006969833333,56.47205206,2983.0597858
10,14,9,AsyncTheta,189,1051_4Hz.avi,ep14_oneeighty_4Hz.wav,ep,1,5.36067870000034,1,10,189,123,6,106,1,13,3,4.38006969833333,56.47205206,2989.1929597
10,15,9,SyncTheta,75,1040_4Hz.avi,willow17_zero_4Hz.wav,willow,2,3.7586938999998,1,10,92,75,153,156,2,3,3,4.38006969833333,56.47205206,2997.3510734
10,16,9,AsyncTheta,186,1031_4Hz.avi,synth7_oneeighty_4Hz.wav,synth,2,3.2748216,0,10,61,54,186,128,3,6,3,4.38006969833333,56.47205206,3004.184241
10,1,10,NoFlickerHalf,74,1337_half_length.avi,orch24_half_length.wav,orch,4,4.37110780000012,1,10,110,91,174,74,4,3,3,4.13460799166667,56.47205206,3148.9719505
10,2,10,NoFlickerHalf,62,1058_half_length.avi,choir19_half_length.wav,choir,3,6.82552610000039,1,10,182,98,62,12,3,14,1,4.13460799166667,56.47205206,3155.7050179
10,3,10,NoFlickerHalf,4,1167_half_length.avi,acoustic37_half_length.wav,acoustic,2,3.02282710000009,1,10,107,4,96,9,2,2,3,4.13460799166667,56.47205206,3164.6216435
10,4,10,NoFlickerFull,110,1443_half_amp.avi,orch3_half_amp.wav,orch,3,2.45057839999981,1,10,91,174,110,74,3,6,5,4.13460799166667,56.47205206,3169.4463457
10,5,10,NoFlickerFull,107,1265_half_amp.avi,acoustic16_half_amp.wav,acoustic,4,3.26697310000009,1,10,9,96,4,107,4,15,3,4.13460799166667,56.47205206,3175.3460537
10,6,10,NoFlickerFull,126,1298_half_amp.avi,dar9_half_amp.wav,dar,4,10.7998164999999,1,10,116,45,43,126,4,11,2,4.13460799166667,56.47205206,3181.3045392
10,7,10,NoFlickerHalf,12,1077_half_length.avi,choir18_half_length.wav,choir,1,2.62456239999983,1,10,12,98,182,62,1,12,3,4.13460799166667,56.47205206,3195.1539266
10,8,10,NoFlickerFull,182,1277_half_amp.avi,choir39_half_amp.wav,choir,4,5.45951830000013,1,10,62,12,98,182,4,4,3,4.13460799166667,56.47205206,3200.8454434
10,9,10,NoFlickerFull,116,1420_half_amp.avi,dar18_half_amp.wav,dar,1,3.63732559999971,1,10,116,45,126,43,1,5,4,4.13460799166667,56.47205206,3209.26207
10,10,10,NoFlickerHalf,9,1054_half_length.avi,acoustic44_half_length.wav,acoustic,3,2.46923590000006,1,10,96,107,9,4,3,8,3,4.13460799166667,56.47205206,3215.5450481
10,11,10,NoFlickerHalf,91,1340_half_length.avi,orch46_half_length.wav,orch,3,5.06977460000007,1,10,110,74,91,174,3,13,3,4.13460799166667,56.47205206,3221.0616271
10,12,10,NoFlickerFull,98,1014_half_amp.avi,choir41_half_amp.wav,choir,4,3.2846171000001,1,10,182,62,12,98,4,7,4,4.13460799166667,56.47205206,3228.3280489
10,13,10,NoFlickerHalf,45,1203_half_length.avi,dar2_half_length.wav,dar,1,4.4633345000002,1,10,45,126,116,43,1,16,2,4.13460799166667,56.47205206,3234.3946274
10,14,10,NoFlickerFull,96,1027_half_amp.avi,acoustic40_half_amp.wav,acoustic,3,3.69778250000036,1,10,107,9,96,4,3,9,3,4.13460799166667,56.47205206,3242.0529263
10,15,10,NoFlickerFull,174,1119_half_amp.avi,orch45_half_amp.wav,orch,4,1.63386029999992,1,10,74,91,110,174,4,10,1,4.13460799166667,56.47205206,3249.2691785
10,16,10,NoFlickerHalf,43,1141_half_length.avi,dar13_half_length.wav,dar,3,3.35999159999983,1,10,116,126,43,45,3,1,1,4.13460799166667,56.47205206,3252.4107947
10,1,11,NoFlickerHalf,81,1444_half_length.avi,orch4_half_length.wav,orch,2,4.80763790000037,1,10,143,81,85,192,2,3,3,3.89402307,56.47205206,3392.3153694
10,2,11,NoFlickerFull,124,1183_half_amp.avi,choir24_half_amp.wav,choir,4,5.43777350000028,0,10,13,124,72,160,2,13,1,3.89402307,56.47205206,3399.2152763
10,3,11,NoFlickerFull,113,1037_half_amp.avi,acoustic23_half_amp.wav,acoustic,3,3.94359120000036,1,10,39,169,113,60,3,8,5,3.89402307,56.47205206,3407.6568024
10,4,11,NoFlickerFull,192,1231_half_amp.avi,orch32_half_amp.wav,orch,3,3.01408840000022,1,10,81,85,192,143,3,5,3,3.89402307,56.47205206,3414.5317369
10,5,11,NoFlickerHalf,60,1249_half_length.avi,acoustic20_half_length.wav,acoustic,3,3.89878920000001,0,10,60,169,39,113,1,15,1,3.89402307,56.47205206,3419.4064373
10,6,11,NoFlickerFull,136,1175_half_amp.avi,dar4_half_amp.wav,dar,3,4.19782500000019,1,10,154,80,136,2,3,14,4,3.89402307,56.47205206,3424.973126
10,7,11,NoFlickerHalf,72,1097_half_length.avi,choir29_half_length.wav,choir,1,3.57644750000009,1,10,72,160,13,124,1,9,1,3.89402307,56.47205206,3432.322942
10,8,11,NoFlickerHalf,13,1201_half_length.avi,choir7_half_length.wav,choir,3,1.9941374,1,10,72,160,13,124,3,4,1,3.89402307,56.47205206,3437.9058985
10,9,11,NoFlickerHalf,80,1082_half_length.avi,dar15_half_length.wav,dar,3,4.30663430000004,0,10,136,80,2,154,2,2,2,3.89402307,56.47205206,3442.5059925
10,10,11,NoFlickerHalf,39,1061_half_length.avi,acoustic11_half_length.wav,acoustic,3,5.29185120000011,0,10,169,39,113,60,2,11,3,3.89402307,56.47205206,3449.4638873
10,11,11,NoFlickerHalf,85,1383_half_length.avi,orch23_half_length.wav,orch,2,4.91691290000017,1,10,192,85,143,81,2,10,2,3.89402307,56.47205206,3458.0970138
10,12,11,NoFlickerFull,160,1421_half_amp.avi,choir13_half_amp.wav,choir,1,3.36399440000014,1,10,160,124,13,72,1,6,1,3.89402307,56.47205206,3464.7635305
10,13,11,NoFlickerFull,154,1074_half_amp.avi,dar5_half_amp.wav,dar,1,3.04636590000018,1,10,154,80,2,136,1,16,4,3.89402307,56.47205206,3470.4050988
10,14,11,NoFlickerFull,169,1083_half_amp.avi,acoustic43_half_amp.wav,acoustic,2,3.40253690000009,1,10,60,169,39,113,2,12,2,3.89402307,56.47205206,3475.6216008
10,15,11,NoFlickerFull,143,1127_half_amp.avi,orch11_half_amp.wav,orch,4,3.76937709999993,1,10,192,81,85,143,4,7,4,3.89402307,56.47205206,3480.6550314
10,16,11,NoFlickerHalf,2,1431_half_length.avi,dar24_half_length.wav,dar,3,3.42140119999976,0,10,2,154,80,136,1,1,3,3.89402307,56.47205206,3486.2378695
10,1,12,SyncTheta,22,1212_4Hz.avi,willow20_zero_4Hz.wav,willow,4,5.83761950000007,1,10,157,55,178,22,4,9,3,4.22512135833333,56.47205206,3633.9590195
10,2,12,SyncTheta,93,1046_4Hz.avi,guitar18_zero_4Hz.wav,guitar,3,3.08792650000032,1,10,3,179,93,161,3,15,1,4.22512135833333,56.47205206,3642.6340582
10,3,12,AsyncTheta,180,1006_4Hz.avi,ep4_oneeighty_4Hz.wav,ep,2,3.1584356999997,1,10,25,180,117,65,2,2,3,4.22512135833333,56.47205206,3648.0919677
10,4,12,AsyncTheta,178,1057_4Hz.avi,willow9_oneeighty_4Hz.wav,willow,2,7.07057760000043,1,10,22,178,157,55,2,10,1,4.22512135833333,56.47205206,3653.6418062
10,5,12,SyncTheta,65,1013_4Hz.avi,ep22_zero_4Hz.wav,ep,1,3.6026953999999,1,10,65,117,25,180,1,16,3,4.22512135833333,56.47205206,3664.1082906
10,6,12,SyncTheta,109,1299_4Hz.avi,synth18_zero_4Hz.wav,synth,3,3.86484599999994,1,10,125,70,109,135,3,8,4,4.22512135833333,56.47205206,3670.4080337
10,7,12,SyncTheta,3,1156_4Hz.avi,guitar31_zero_4Hz.wav,guitar,3,2.25164219999988,1,10,93,179,3,161,3,13,1,4.22512135833333,56.47205206,3676.649499
10,8,12,AsyncTheta,179,1186_4Hz.avi,guitar30_oneeighty_4Hz.wav,guitar,2,4.52692499999966,1,10,93,179,161,3,2,3,1,4.22512135833333,56.47205206,3682.2910587
10,9,12,SyncTheta,70,1093_4Hz.avi,synth6_zero_4Hz.wav,synth,2,3.84413089999998,0,10,125,135,109,70,4,5,3,4.22512135833333,56.47205206,3690.1492023
10,10,12,SyncTheta,25,1094_4Hz.avi,ep15_zero_4Hz.wav,ep,2,5.4591690000002,1,10,65,25,117,180,2,4,3,4.22512135833333,56.47205206,3697.3742748
10,11,12,AsyncTheta,157,1225_4Hz.avi,willow14_oneeighty_4Hz.wav,willow,3,5.81056659999967,0,10,157,55,22,178,1,14,2,4.22512135833333,56.47205206,3704.9240822
10,12,12,AsyncTheta,161,1433_4Hz.avi,guitar2_oneeighty_4Hz.wav,guitar,3,3.40359569999964,1,10,3,179,161,93,3,7,1,4.22512135833333,56.47205206,3713.5405211
10,13,12,AsyncTheta,135,1154_4Hz.avi,synth38_oneeighty_4Hz.wav,synth,1,6.70480950000001,0,10,70,109,135,125,3,11,2,4.22512135833333,56.47205206,3718.8651415
10,14,12,AsyncTheta,117,1144_4Hz.avi,ep39_oneeighty_4Hz.wav,ep,2,2.87607380000009,1,10,65,117,25,180,2,6,2,4.22512135833333,56.47205206,3727.4316575
10,15,12,SyncTheta,55,1044_4Hz.avi,willow4_zero_4Hz.wav,willow,4,3.50072599999976,1,10,178,157,22,55,4,12,1,4.22512135833333,56.47205206,3733.7980649
10,16,12,AsyncTheta,125,1050_4Hz.avi,synth36_oneeighty_4Hz.wav,synth,1,2.75279169999976,1,10,125,70,109,135,1,1,1,4.22512135833333,56.47205206,3740.6565039
