ParticipantID,TrialNumber,BlockNumber,Condition,ClipID,VideoFile,SoundFile,SoundCategory,Response,RT,Accuracy,ConditionID,Frame1,Frame2,Frame3,Frame4,CorrectKey,EncodingPosition,Rating,BlockDuration,ExperimentDuration,MemoryTestOnset
17,1,1,AsyncTheta,79,1071_4Hz.avi,acoustic17_oneeighty_4Hz.wav,acoustic,4,10.5774783000015,1,17,20,5,105,79,4,6,3,21.3499832433333,83.9102643583333,25056.7339039
17,2,1,SyncTheta,20,1236_4Hz.avi,acoustic25_zero_4Hz.wav,acoustic,1,5.02615329999753,1,17,20,5,105,79,1,9,3,21.3499832433333,83.9102643583333,25069.4085765
17,3,1,SyncTheta,52,1387_4Hz.avi,choir2_zero_4Hz.wav,choir,2,2.65708770000128,1,17,121,52,63,97,2,5,3,21.3499832433333,83.9102643583333,25077.4583875
17,4,1,AsyncTheta,158,1206_4Hz.avi,orch6_oneeighty_4Hz.wav,orch,3,9.74118730000191,0,17,158,102,188,28,1,14,1,21.3499832433333,83.9102643583333,25083.574909
17,5,1,SyncTheta,28,1148_4Hz.avi,orch19_zero_4Hz.wav,orch,4,6.32338420000087,1,17,158,188,102,28,4,3,1,21.3499832433333,83.9102643583333,25095.2663847
17,6,1,SyncTheta,63,1128_4Hz.avi,choir26_zero_4Hz.wav,choir,4,5.21402409999791,0,17,52,97,63,121,3,11,1,21.3499832433333,83.9102643583333,25104.2744721
17,7,1,SyncTheta,102,1012_4Hz.avi,orch18_zero_4Hz.wav,orch,4,6.03684730000168,0,17,188,28,102,158,3,12,2,21.3499832433333,83.9102643583333,25111.4991834
17,8,1,AsyncTheta,114,1322_4Hz.avi,dar14_oneeighty_4Hz.wav,dar,2,6.2016532000016,0,17,147,64,40,114,4,2,2,21.3499832433333,83.9102643583333,25120.6742882
17,9,1,SyncTheta,40,1239_4Hz.avi,dar6_zero_4Hz.wav,dar,4,3.50759000000107,0,17,64,114,40,147,3,15,3,21.3499832433333,83.9102643583333,25129.0488915
17,10,1,AsyncTheta,147,1304_4Hz.avi,dar10_oneeighty_4Hz.wav,dar,3,4.26086890000079,0,17,64,114,40,147,4,16,1,21.3499832433333,83.9102643583333,25135.9820313
17,11,1,AsyncTheta,97,1368_4Hz.avi,choir30_oneeighty_4Hz.wav,choir,1,3.34950949999984,0,17,63,121,52,97,4,4,2,21.3499832433333,83.9102643583333,25143.7403854
17,12,1,AsyncTheta,121,1354_4Hz.avi,choir22_oneeighty_4Hz.wav,choir,4,5.45025100000203,1,17,52,63,97,121,4,8,3,21.3499832433333,83.9102643583333,25148.8486198
17,13,1,SyncTheta,64,1098_4Hz.avi,dar11_zero_4Hz.wav,dar,4,4.85414049999963,0,17,64,147,40,114,1,1,1,21.3499832433333,83.9102643583333,25157.7817194
17,14,1,AsyncTheta,105,1003_4Hz.avi,acoustic6_oneeighty_4Hz.wav,acoustic,1,5.42998950000037,1,17,105,5,20,79,1,7,1,21.3499832433333,83.9102643583333,25164.939672
17,15,1,AsyncTheta,188,1036_4Hz.avi,orch26_oneeighty_4Hz.wav,orch,2,8.28205639999942,0,17,188,102,158,28,1,10,1,21.3499832433333,83.9102643583333,25173.5144374
17,16,1,SyncTheta,5,1381_4Hz.avi,acoustic1_zero_4Hz.wav,acoustic,4,10.7138869000009,0,17,105,79,5,20,3,13,1,21.3499832433333,83.9102643583333,25184.8727354
17,1,2,NoFlickerHalf,87,1142_half_length.avi,ep3_half_length.wav,ep,1,11.7993306999997,1,17,87,176,41,150,1,8,2,8.16014367833333,83.9102643583333,25549.6557903
17,2,2,NoFlickerFull,150,1394_half_amp.avi,ep11_half_amp.wav,ep,4,5.25782840000102,0,17,87,150,176,41,2,14,1,8.16014367833333,83.9102643583333,25564.3303591
17,3,2,NoFlickerHalf,59,1346_half_length.avi,guitar33_half_length.wav,guitar,3,8.63803350000308,1,17,185,112,59,67,3,3,2,8.16014367833333,83.9102643583333,25571.4384845
17,4,2,NoFlickerFull,152,1445_half_amp.avi,willow2_half_amp.wav,willow,1,10.1058338000003,1,17,152,32,37,171,1,15,5,8.16014367833333,83.9102643583333,25583.3300397
17,5,2,NoFlickerHalf,32,1360_half_length.avi,willow10_half_length.wav,willow,3,4.03053130000262,0,17,32,171,37,152,1,7,1,8.16014367833333,83.9102643583333,25596.4380822
17,6,2,NoFlickerHalf,67,1310_half_length.avi,guitar21_half_length.wav,guitar,3,6.49876350000341,1,17,112,59,67,185,3,5,4,8.16014367833333,83.9102643583333,25602.3293364
17,7,2,NoFlickerHalf,37,1237_half_length.avi,willow15_half_length.wav,willow,1,9.11183149999852,0,17,32,37,171,152,2,11,4,8.16014367833333,83.9102643583333,25611.4542049
17,8,2,NoFlickerHalf,8,1252_half_length.avi,synth25_half_length.wav,synth,4,6.22844319999786,1,17,127,155,71,8,4,6,4,8.16014367833333,83.9102643583333,25622.4955817
17,9,2,NoFlickerFull,127,1411_half_amp.avi,synth28_half_amp.wav,synth,1,5.0252619999992,1,17,127,8,155,71,1,9,1,8.16014367833333,83.9102643583333,25630.9704103
17,10,2,NoFlickerFull,155,1042_half_amp.avi,synth10_half_amp.wav,synth,1,4.42894140000135,1,17,155,71,127,8,1,13,4,8.16014367833333,83.9102643583333,25638.5036285
17,11,2,NoFlickerFull,112,1388_half_amp.avi,guitar39_half_amp.wav,guitar,4,7.74867350000204,0,17,59,112,185,67,2,1,4,8.16014367833333,83.9102643583333,25646.395262
17,12,2,NoFlickerFull,185,1131_half_amp.avi,guitar45_half_amp.wav,guitar,2,1.6337717000024,1,17,112,185,67,59,2,4,1,8.16014367833333,83.9102643583333,25656.6613955
17,13,2,NoFlickerHalf,71,1076_half_length.avi,synth21_half_length.wav,synth,2,6.86478380000335,0,17,71,8,127,155,1,2,4,8.16014367833333,83.9102643583333,25660.1780318
17,14,2,NoFlickerHalf,41,1132_half_length.avi,ep10_half_length.wav,ep,2,2.85114030000113,1,17,87,41,176,150,2,12,1,8.16014367833333,83.9102643583333,25670.3280304
17,15,2,NoFlickerFull,171,1280_half_amp.avi,willow19_half_amp.wav,willow,2,3.31057180000062,1,17,32,171,37,152,2,10,4,8.16014367833333,83.9102643583333,25676.0945628
17,16,2,NoFlickerFull,176,1405_half_amp.avi,ep46_half_amp.wav,ep,2,4.01360910000221,0,17,87,41,176,150,3,16,1,8.16014367833333,83.9102643583333,25681.385905
17,1,3,NoFlickerHalf,24,1217_half_length.avi,ep44_half_length.wav,ep,1,7.01681309999913,1,17,24,177,144,16,1,3,3,5.59955146666667,83.9102643583333,25875.6233173
17,2,3,NoFlickerFull,177,1283_half_amp.avi,ep38_half_amp.wav,ep,1,3.79541220000101,1,17,177,16,24,144,1,13,5,5.59955146666667,83.9102643583333,25885.4229513
17,3,3,NoFlickerFull,183,1374_half_amp.avi,guitar16_half_amp.wav,guitar,3,7.29682669999966,1,17,151,77,183,46,3,4,1,5.59955146666667,83.9102643583333,25891.9395177
17,4,3,NoFlickerFull,118,1020_half_amp.avi,willow22_half_amp.wav,willow,2,4.01167220000207,1,17,167,118,66,27,2,14,2,5.59955146666667,83.9102643583333,25901.2060642
17,5,3,NoFlickerHalf,27,1202_half_length.avi,willow16_half_length.wav,willow,1,3.19940279999719,1,17,27,167,66,118,1,6,5,5.59955146666667,83.9102643583333,25908.2809091
17,6,3,NoFlickerHalf,77,1008_half_length.avi,guitar42_half_length.wav,guitar,4,4.46524669999781,1,17,151,46,183,77,4,11,4,5.59955146666667,83.9102643583333,25913.5139605
17,7,3,NoFlickerFull,167,1177_half_amp.avi,willow24_half_amp.wav,willow,1,4.07432880000124,0,17,66,118,167,27,3,9,5,5.59955146666667,83.9102643583333,25920.1391797
17,8,3,NoFlickerFull,129,1286_half_amp.avi,synth30_half_amp.wav,synth,3,16.3251607999991,0,17,184,129,95,100,2,7,3,5.59955146666667,83.9102643583333,25926.480305
17,9,3,NoFlickerHalf,95,1359_half_length.avi,synth33_half_length.wav,synth,2,3.77408009999999,1,17,184,95,100,129,2,12,4,5.59955146666667,83.9102643583333,25945.9967159
17,10,3,NoFlickerHalf,100,1107_half_length.avi,synth23_half_length.wav,synth,4,4.54327610000109,1,17,184,129,95,100,4,15,4,5.59955146666667,83.9102643583333,25952.7962465
17,11,3,NoFlickerFull,151,1259_half_amp.avi,guitar43_half_amp.wav,guitar,2,5.44805800000177,1,17,77,151,183,46,2,2,1,5.59955146666667,83.9102643583333,25959.3378312
17,12,3,NoFlickerHalf,46,1210_half_length.avi,guitar48_half_length.wav,guitar,4,13.0845986999993,0,17,46,77,183,151,1,10,4,5.59955146666667,83.9102643583333,25966.6962446
17,13,3,NoFlickerFull,184,1052_half_amp.avi,synth40_half_amp.wav,synth,1,3.48233330000221,1,17,184,95,100,129,1,1,1,5.59955146666667,83.9102643583333,25982.1538878
17,14,3,NoFlickerHalf,16,1442_half_length.avi,ep34_half_length.wav,ep,1,6.61897429999954,0,17,144,16,24,177,2,5,1,5.59955146666667,83.9102643583333,25989.0790494
17,15,3,NoFlickerHalf,66,1215_half_length.avi,willow18_half_length.wav,willow,3,6.8375847999996,1,17,167,118,66,27,3,8,1,5.59955146666667,83.9102643583333,25998.1372079
17,16,3,NoFlickerFull,144,1255_half_amp.avi,ep28_half_amp.wav,ep,3,14.7888042999984,0,17,177,144,16,24,2,16,3,5.59955146666667,83.9102643583333,26006.795134
17,1,4,AsyncTheta,104,1111_4Hz.avi,acoustic31_oneeighty_4Hz.wav,acoustic,1,7.48840880000353,1,17,104,1,58,83,1,3,4,6.08460076833333,83.9102643583333,26225.6487526
17,2,4,SyncTheta,58,1323_4Hz.avi,acoustic29_zero_4Hz.wav,acoustic,2,16.3296884999982,1,17,1,58,83,104,2,6,1,6.08460076833333,83.9102643583333,26236.2649839
17,3,4,SyncTheta,10,1179_4Hz.avi,choir4_zero_4Hz.wav,choir,1,7.40505259999918,0,17,88,10,11,76,2,4,4,6.08460076833333,83.9102643583333,26254.5814361
17,4,4,AsyncTheta,137,1303_4Hz.avi,orch10_oneeighty_4Hz.wav,orch,1,11.1369844999972,0,17,134,42,57,137,4,15,4,6.08460076833333,83.9102643583333,26265.33938
17,5,4,SyncTheta,42,1339_4Hz.avi,orch31_zero_4Hz.wav,orch,4,3.87055139999939,1,17,57,137,134,42,4,8,2,6.08460076833333,83.9102643583333,26279.6891931
17,6,4,SyncTheta,11,1448_4Hz.avi,choir36_zero_4Hz.wav,choir,2,4.02305799999885,0,17,76,10,11,88,3,11,2,6.08460076833333,83.9102643583333,26286.3055352
17,7,4,AsyncTheta,134,1026_4Hz.avi,orch16_oneeighty_4Hz.wav,orch,2,3.92439469999954,1,17,42,134,57,137,2,14,4,6.08460076833333,83.9102643583333,26293.9219755
17,8,4,AsyncTheta,82,1449_4Hz.avi,dar17_oneeighty_4Hz.wav,dar,4,4.94779529999869,1,17,49,29,162,82,4,7,1,6.08460076833333,83.9102643583333,26300.6468337
17,9,4,SyncTheta,29,1158_4Hz.avi,dar23_zero_4Hz.wav,dar,2,13.826705200001,1,17,82,29,162,49,2,9,2,6.08460076833333,83.9102643583333,26307.4719265
17,10,4,SyncTheta,49,1221_4Hz.avi,dar21_zero_4Hz.wav,dar,4,5.06147899999996,0,17,82,29,49,162,3,16,1,6.08460076833333,83.9102643583333,26324.2546313
17,11,4,AsyncTheta,88,1191_4Hz.avi,choir20_oneeighty_4Hz.wav,choir,1,9.14350209999975,0,17,76,11,88,10,3,1,3,6.08460076833333,83.9102643583333,26331.1380686
17,12,4,AsyncTheta,76,1293_4Hz.avi,choir23_oneeighty_4Hz.wav,choir,2,8.06140150000283,0,17,76,88,11,10,1,10,1,6.08460076833333,83.9102643583333,26343.4961428
17,13,4,AsyncTheta,162,1358_4Hz.avi,dar7_oneeighty_4Hz.wav,dar,3,4.95765019999817,0,17,82,162,29,49,2,2,1,6.08460076833333,83.9102643583333,26353.2374128
17,14,4,AsyncTheta,83,1139_4Hz.avi,acoustic27_oneeighty_4Hz.wav,acoustic,4,6.21350630000234,0,17,104,58,83,1,3,5,1,6.08460076833333,83.9102643583333,26360.6790739
17,15,4,SyncTheta,57,1309_4Hz.avi,orch7_zero_4Hz.wav,orch,4,5.8592236000004,1,17,134,137,42,57,4,13,4,6.08460076833333,83.9102643583333,26369.4205474
17,16,4,SyncTheta,1,1064_4Hz.avi,acoustic12_zero_4Hz.wav,acoustic,2,9.94045859999824,0,17,58,83,104,1,4,12,2,6.08460076833333,83.9102643583333,26376.9201403
17,1,5,SyncTheta,44,1254_4Hz.avi,acoustic48_zero_4Hz.wav,acoustic,3,11.5655155000022,1,17,190,21,44,148,3,1,3,5.51945982333333,83.9102643583333,26581.4156781
17,2,5,AsyncTheta,148,1121_4Hz.avi,acoustic26_oneeighty_4Hz.wav,acoustic,4,7.12615039999946,0,17,44,21,148,190,3,9,3,5.51945982333333,83.9102643583333,26595.2989069
17,3,5,SyncTheta,69,1216_4Hz.avi,choir32_zero_4Hz.wav,choir,1,5.0505258000012,1,17,69,159,68,78,1,8,5,5.51945982333333,83.9102643583333,26604.8236497
17,4,5,SyncTheta,36,1284_4Hz.avi,orch29_zero_4Hz.wav,orch,3,6.09505179999906,0,17,36,141,142,30,1,15,2,5.51945982333333,83.9102643583333,26612.8401362
17,5,5,AsyncTheta,141,1401_4Hz.avi,orch12_oneeighty_4Hz.wav,orch,2,5.25746870000148,0,17,141,142,30,36,1,7,5,5.51945982333333,83.9102643583333,26622.1646472
17,6,5,SyncTheta,68,1023_4Hz.avi,choir3_zero_4Hz.wav,choir,2,7.51128850000168,0,17,69,159,68,78,3,12,2,5.51945982333333,83.9102643583333,26629.5062114
17,7,5,AsyncTheta,142,1155_4Hz.avi,orch9_oneeighty_4Hz.wav,orch,3,6.45560029999979,1,17,30,141,142,36,3,14,2,5.51945982333333,83.9102643583333,26638.7726787
17,8,5,SyncTheta,14,1416_4Hz.avi,dar1_zero_4Hz.wav,dar,2,5.51854699999967,0,17,191,34,122,14,4,5,1,5.51945982333333,83.9102643583333,26646.9560646
17,9,5,SyncTheta,34,1319_4Hz.avi,dar22_zero_4Hz.wav,dar,3,12.8432087000001,0,17,191,34,122,14,2,6,4,5.51945982333333,83.9102643583333,26655.3225426
17,10,5,AsyncTheta,122,1289_4Hz.avi,dar3_oneeighty_4Hz.wav,dar,2,4.83026709999831,0,17,122,14,34,191,1,13,2,5.51945982333333,83.9102643583333,26670.5136592
17,11,5,AsyncTheta,159,1091_4Hz.avi,choir8_oneeighty_4Hz.wav,choir,3,5.08255959999951,0,17,159,69,68,78,1,4,5,5.51945982333333,83.9102643583333,26677.3884861
17,12,5,AsyncTheta,78,1301_4Hz.avi,choir11_oneeighty_4Hz.wav,choir,1,3.35685210000156,0,17,68,159,69,78,4,11,5,5.51945982333333,83.9102643583333,26684.7383389
17,13,5,AsyncTheta,191,1314_4Hz.avi,dar19_oneeighty_4Hz.wav,dar,4,5.4435444999981,1,17,14,122,34,191,4,3,1,5.51945982333333,83.9102643583333,26690.0798509
17,14,5,SyncTheta,21,1112_4Hz.avi,acoustic32_zero_4Hz.wav,acoustic,1,5.080007200002,0,17,148,21,190,44,2,2,1,5.51945982333333,83.9102643583333,26697.1880991
17,15,5,SyncTheta,30,1016_4Hz.avi,orch14_zero_4Hz.wav,orch,2,6.41927949999808,0,17,142,141,36,30,4,10,1,5.51945982333333,83.9102643583333,26704.7212326
17,16,5,AsyncTheta,190,1427_4Hz.avi,acoustic46_oneeighty_4Hz.wav,acoustic,2,4.1987552999999,0,17,190,21,148,44,1,16,2,5.51945982333333,83.9102643583333,26714.0460205
17,1,6,NoFlickerFull,138,1149_half_amp.avi,ep2_half_amp.wav,ep,3,16.8818818999971,0,17,99,138,26,173,2,2,5,5.13965515,83.9102643583333,26878.2259144
17,2,6,NoFlickerHalf,99,1173_half_length.avi,ep6_half_length.wav,ep,4,9.07663179999872,0,17,99,26,138,173,1,14,3,5.13965515,83.9102643583333,26898.3002476
17,3,6,NoFlickerFull,172,1350_half_amp.avi,guitar10_half_amp.wav,guitar,4,10.4920521000022,1,17,7,168,73,172,4,8,1,5.13965515,83.9102643583333,26910.8416123
17,4,6,NoFlickerFull,130,1081_half_amp.avi,willow5_half_amp.wav,willow,2,9.65856880000138,1,17,108,130,48,120,2,13,4,5.13965515,83.9102643583333,26923.5832356
17,5,6,NoFlickerFull,120,1365_half_amp.avi,willow21_half_amp.wav,willow,1,3.26906709999821,1,17,120,48,130,108,1,1,5,5.13965515,83.9102643583333,26935.2498113
17,6,6,NoFlickerHalf,73,1369_half_length.avi,guitar19_half_length.wav,guitar,2,6.16176369999812,1,17,172,73,7,168,2,12,2,5.13965515,83.9102643583333,26941.2410152
17,7,6,NoFlickerHalf,48,1021_half_length.avi,willow12_half_length.wav,willow,1,2.91674760000024,1,17,48,120,130,108,1,11,4,5.13965515,83.9102643583333,26948.9659913
17,8,6,NoFlickerHalf,50,1049_half_length.avi,synth43_half_length.wav,synth,1,1.90838820000135,1,17,50,89,140,163,1,7,1,5.13965515,83.9102643583333,26954.8907515
17,9,6,NoFlickerHalf,89,1393_half_length.avi,synth41_half_length.wav,synth,2,4.48782539999956,0,17,140,50,89,163,3,10,2,5.13965515,83.9102643583333,26959.4489374
17,10,6,NoFlickerFull,163,1441_half_amp.avi,synth27_half_amp.wav,synth,3,4.22918009999921,1,17,89,140,163,50,3,15,1,5.13965515,83.9102643583333,26965.948829
17,11,6,NoFlickerHalf,7,1017_half_length.avi,guitar47_half_length.wav,guitar,3,3.29252970000016,0,17,172,73,168,7,4,3,1,5.13965515,83.9102643583333,26973.2321395
17,12,6,NoFlickerFull,168,1204_half_amp.avi,guitar36_half_amp.wav,guitar,3,9.80562330000248,1,17,7,73,168,172,3,9,3,5.13965515,83.9102643583333,26978.2403604
17,13,6,NoFlickerFull,140,1270_half_amp.avi,synth17_half_amp.wav,synth,1,3.03378019999946,1,17,140,50,89,163,1,6,4,5.13965515,83.9102643583333,26991.5398227
17,14,6,NoFlickerFull,173,1348_half_amp.avi,ep31_half_amp.wav,ep,2,7.2480338000023,1,17,99,173,138,26,2,5,4,5.13965515,83.9102643583333,26996.7399599
17,15,6,NoFlickerHalf,108,1415_half_length.avi,willow3_half_length.wav,willow,2,6.49743640000088,0,17,108,48,120,130,1,4,5,5.13965515,83.9102643583333,27006.9730471
17,16,6,NoFlickerHalf,26,1190_half_length.avi,ep7_half_length.wav,ep,2,11.4027270999977,0,17,173,138,99,26,4,16,3,5.13965515,83.9102643583333,27015.4312045
17,1,7,NoFlickerHalf,86,1278_half_length.avi,ep35_half_length.wav,ep,3,4.31879879999906,1,17,166,101,86,132,3,3,3,5.53568825166667,83.9102643583333,27197.7771785
17,2,7,NoFlickerFull,166,1227_half_amp.avi,ep5_half_amp.wav,ep,1,17.7794646999973,0,17,132,101,86,166,4,8,4,5.53568825166667,83.9102643583333,27205.3851475
17,3,7,NoFlickerFull,164,1087_half_amp.avi,guitar17_half_amp.wav,guitar,1,3.09552700000131,1,17,164,90,84,146,1,10,4,5.53568825166667,83.9102643583333,27226.5679355
17,4,7,NoFlickerHalf,18,1101_half_length.avi,willow13_half_length.wav,willow,1,5.71229999999923,0,17,94,119,18,149,3,13,4,5.53568825166667,83.9102643583333,27231.3345906
17,5,7,NoFlickerFull,119,1189_half_amp.avi,willow11_half_amp.wav,willow,2,5.98987529999795,1,17,94,119,149,18,2,1,5,5.53568825166667,83.9102643583333,27239.6511198
17,6,7,NoFlickerHalf,90,1273_half_length.avi,guitar23_half_length.wav,guitar,2,15.0015810000004,0,17,90,146,164,84,1,14,1,5.53568825166667,83.9102643583333,27247.9425064
17,7,7,NoFlickerFull,149,1200_half_amp.avi,willow8_half_amp.wav,willow,4,4.11069770000177,1,17,94,18,119,149,4,6,3,5.53568825166667,83.9102643583333,27264.7587938
17,8,7,NoFlickerHalf,35,1039_half_length.avi,synth5_half_length.wav,synth,2,4.40069950000179,1,17,131,35,111,51,2,7,1,5.53568825166667,83.9102643583333,27272.3086228
17,9,7,NoFlickerFull,111,1390_half_amp.avi,synth3_half_amp.wav,synth,4,13.952737399999,1,17,131,35,51,111,4,15,5,5.53568825166667,83.9102643583333,27280.167022
17,10,7,NoFlickerFull,131,1366_half_amp.avi,synth34_half_amp.wav,synth,2,4.93993190000037,1,17,111,131,51,35,2,16,1,5.53568825166667,83.9102643583333,27296.6414566
17,11,7,NoFlickerHalf,84,1294_half_length.avi,guitar6_half_length.wav,guitar,3,4.35107970000172,1,17,146,164,84,90,3,9,4,5.53568825166667,83.9102643583333,27304.1162974
17,12,7,NoFlickerFull,146,1005_half_amp.avi,guitar14_half_amp.wav,guitar,1,15.8804479000028,0,17,90,146,84,164,2,12,1,5.53568825166667,83.9102643583333,27310.5163448
17,13,7,NoFlickerHalf,51,1331_half_length.avi,synth47_half_length.wav,synth,3,1.80573999999979,1,17,131,35,51,111,3,4,5,5.53568825166667,83.9102643583333,27328.4326162
17,14,7,NoFlickerHalf,101,1295_half_length.avi,ep40_half_length.wav,ep,1,11.4605295999972,1,17,101,132,166,86,1,5,4,5.53568825166667,83.9102643583333,27333.4658353
17,15,7,NoFlickerHalf,94,1109_half_length.avi,willow6_half_length.wav,willow,1,4.08591639999941,0,17,149,94,119,18,2,2,5,5.53568825166667,83.9102643583333,27347.0321999
17,16,7,NoFlickerFull,132,1356_half_amp.avi,ep30_half_amp.wav,ep,2,4.8477172999992,0,17,132,166,101,86,1,11,2,5.53568825166667,83.9102643583333,27354.3570383
17,1,8,SyncTheta,23,1330_4Hz.avi,acoustic47_zero_4Hz.wav,acoustic,1,4.90480630000093,1,17,23,133,175,47,1,1,4,5.44622258333333,83.9102643583333,27539.6194745
17,2,8,SyncTheta,47,1292_4Hz.avi,acoustic28_zero_4Hz.wav,acoustic,2,7.41116300000067,1,17,133,47,23,175,2,10,2,5.44622258333333,83.9102643583333,27547.8276366
17,3,8,AsyncTheta,139,1192_4Hz.avi,choir5_oneeighty_4Hz.wav,choir,1,12.3611196999991,0,17,38,19,181,139,4,8,4,5.44622258333333,83.9102643583333,27558.7439592
17,4,8,SyncTheta,17,1162_4Hz.avi,orch1_zero_4Hz.wav,orch,1,12.3474855999993,0,17,33,165,17,145,3,15,5,5.44622258333333,83.9102643583333,27573.1185876
17,5,8,AsyncTheta,165,1410_4Hz.avi,orch43_oneeighty_4Hz.wav,orch,2,3.70785289999912,0,17,33,17,145,165,4,3,2,5.44622258333333,83.9102643583333,27587.2850205
17,6,8,SyncTheta,19,1247_4Hz.avi,choir38_zero_4Hz.wav,choir,3,5.86924859999999,0,17,38,19,181,139,2,14,4,5.44622258333333,83.9102643583333,27593.2515567
17,7,8,SyncTheta,33,1136_4Hz.avi,orch38_zero_4Hz.wav,orch,3,7.76405299999897,1,17,145,165,33,17,3,11,4,5.44622258333333,83.9102643583333,27601.4848026
17,8,8,SyncTheta,31,1404_4Hz.avi,dar8_zero_4Hz.wav,dar,3,2.91632089999985,1,17,56,103,31,187,3,7,4,5.44622258333333,83.9102643583333,27611.1847205
17,9,8,SyncTheta,56,1063_4Hz.avi,dar16_zero_4Hz.wav,dar,1,9.41786610000054,0,17,103,31,187,56,4,12,1,5.44622258333333,83.9102643583333,27616.509606
17,10,8,AsyncTheta,103,1084_4Hz.avi,dar20_oneeighty_4Hz.wav,dar,3,4.6121392999994,1,17,31,187,103,56,3,13,3,5.44622258333333,83.9102643583333,27628.9507963
17,11,8,AsyncTheta,181,1168_4Hz.avi,choir1_oneeighty_4Hz.wav,choir,4,5.18802919999871,0,17,181,38,139,19,1,2,4,5.44622258333333,83.9102643583333,27635.5006207
17,12,8,SyncTheta,38,1184_4Hz.avi,choir33_zero_4Hz.wav,choir,3,6.81439300000056,1,17,19,181,38,139,3,9,4,5.44622258333333,83.9102643583333,27644.2756441
17,13,8,AsyncTheta,187,1164_4Hz.avi,dar12_oneeighty_4Hz.wav,dar,2,6.59451640000043,0,17,31,56,103,187,4,5,3,5.44622258333333,83.9102643583333,27653.941869
17,14,8,AsyncTheta,175,1103_4Hz.avi,acoustic10_oneeighty_4Hz.wav,acoustic,3,6.13342120000016,1,17,23,133,175,47,3,4,1,5.44622258333333,83.9102643583333,27662.3251917
17,15,8,AsyncTheta,145,1352_4Hz.avi,orch39_oneeighty_4Hz.wav,orch,1,6.9522896999988,1,17,145,165,17,33,1,6,3,5.44622258333333,83.9102643583333,27670.9750762
17,16,8,AsyncTheta,133,1341_4Hz.avi,acoustic14_oneeighty_4Hz.wav,acoustic,4,5.9905906999993,1,17,47,23,175,133,4,16,4,5.44622258333333,83.9102643583333,27680.2245543
17,1,9,SyncTheta,4,1167_4Hz.avi,acoustic37_zero_4Hz.wav,acoustic,2,5.87007019999874,1,17,9,4,96,107,2,4,4,5.44509454,83.9102643583333,27875.9453268
17,2,9,SyncTheta,9,1054_4Hz.avi,acoustic44_zero_4Hz.wav,acoustic,2,4.93178869999974,1,17,107,9,4,96,2,12,4,5.44509454,83.9102643583333,27885.237027
17,3,9,AsyncTheta,98,1014_4Hz.avi,choir41_oneeighty_4Hz.wav,choir,2,7.34675839999909,0,17,98,182,62,12,1,2,3,5.44509454,83.9102643583333,27893.2618449
17,4,9,SyncTheta,91,1340_4Hz.avi,orch46_zero_4Hz.wav,orch,4,7.4046860999988,0,17,91,174,110,74,1,16,1,5.44509454,83.9102643583333,27903.1280749
17,5,9,AsyncTheta,110,1443_4Hz.avi,orch3_oneeighty_4Hz.wav,orch,1,5.25403170000209,0,17,91,74,110,174,3,5,4,5.44509454,83.9102643583333,27912.3696441
17,6,9,SyncTheta,62,1058_4Hz.avi,choir19_zero_4Hz.wav,choir,3,6.93692139999985,0,17,182,12,98,62,4,13,4,5.44509454,83.9102643583333,27920.3359718
17,7,9,SyncTheta,74,1337_4Hz.avi,orch24_zero_4Hz.wav,orch,3,6.21923709999828,0,17,110,91,174,74,4,15,2,5.44509454,83.9102643583333,27929.0192362
17,8,9,AsyncTheta,116,1420_4Hz.avi,dar18_oneeighty_4Hz.wav,dar,3,3.86204350000116,1,17,126,45,116,43,3,8,2,5.44509454,83.9102643583333,27937.2442433
17,9,9,SyncTheta,43,1141_4Hz.avi,dar13_zero_4Hz.wav,dar,4,13.4691344000021,0,17,116,43,126,45,2,9,3,5.44509454,83.9102643583333,27944.2271897
17,10,9,SyncTheta,45,1203_4Hz.avi,dar2_zero_4Hz.wav,dar,1,6.67757710000296,0,17,43,126,116,45,4,10,2,5.44509454,83.9102643583333,27961.0353768
17,11,9,AsyncTheta,182,1277_4Hz.avi,choir39_oneeighty_4Hz.wav,choir,3,5.93152259999988,0,17,98,182,12,62,2,1,3,5.44509454,83.9102643583333,27969.9433448
17,12,9,SyncTheta,12,1077_4Hz.avi,choir18_zero_4Hz.wav,choir,2,3.9471358999981,0,17,98,62,12,182,3,11,1,5.44509454,83.9102643583333,27977.6431267
17,13,9,AsyncTheta,126,1298_4Hz.avi,dar9_oneeighty_4Hz.wav,dar,1,6.417484900001,1,17,126,43,45,116,1,3,1,5.44509454,83.9102643583333,27983.9429877
17,14,9,AsyncTheta,96,1027_4Hz.avi,acoustic40_oneeighty_4Hz.wav,acoustic,4,5.26229990000138,0,17,96,9,4,107,1,7,1,5.44509454,83.9102643583333,27993.0594619
17,15,9,AsyncTheta,174,1119_4Hz.avi,orch45_oneeighty_4Hz.wav,orch,1,3.34001229999922,1,17,174,110,74,91,1,6,5,5.44509454,83.9102643583333,28001.6676865
17,16,9,AsyncTheta,107,1265_4Hz.avi,acoustic16_oneeighty_4Hz.wav,acoustic,1,4.71465200000239,0,17,96,9,4,107,4,14,4,5.44509454,83.9102643583333,28008.4426593
17,1,10,NoFlickerHalf,6,1007_half_length.avi,ep8_half_length.wav,ep,4,5.32872729999872,0,17,6,189,123,106,1,2,3,4.54611089166667,83.9102643583333,28177.81393
17,2,10,NoFlickerFull,189,1051_half_amp.avi,ep14_half_amp.wav,ep,2,4.60887830000138,0,17,123,6,106,189,4,5,5,4.54611089166667,83.9102643583333,28186.2804094
17,3,10,NoFlickerFull,170,1062_half_amp.avi,guitar3_half_amp.wav,guitar,4,4.15247030000319,0,17,53,115,170,15,3,6,5,4.54611089166667,83.9102643583333,28193.5216805
17,4,10,NoFlickerFull,153,1157_half_amp.avi,willow1_half_amp.wav,willow,1,4.65245240000149,0,17,156,92,75,153,4,16,4,4.54611089166667,83.9102643583333,28199.8467713
17,5,10,NoFlickerHalf,92,1030_half_length.avi,willow23_half_length.wav,willow,4,4.40641700000197,1,17,156,153,75,92,4,1,3,4.54611089166667,83.9102643583333,28207.9796516
17,6,10,NoFlickerHalf,53,1197_half_length.avi,guitar46_half_length.wav,guitar,2,3.37162900000112,1,17,170,53,115,15,2,15,1,4.54611089166667,83.9102643583333,28214.0964492
17,7,10,NoFlickerFull,156,1060_half_amp.avi,willow7_half_amp.wav,willow,1,5.09847230000014,1,17,156,75,153,92,1,14,4,4.54611089166667,83.9102643583333,28219.8129991
17,8,10,NoFlickerHalf,61,1207_half_length.avi,synth46_half_length.wav,synth,1,5.34252429999833,1,17,61,128,186,54,1,8,1,4.54611089166667,83.9102643583333,28226.8961944
17,9,10,NoFlickerFull,128,1269_half_amp.avi,synth14_half_amp.wav,synth,4,2.12277620000168,1,17,61,186,54,128,4,9,5,4.54611089166667,83.9102643583333,28233.9710331
17,10,10,NoFlickerHalf,54,1181_half_length.avi,synth12_half_length.wav,synth,4,6.00581619999866,1,17,61,186,128,54,4,10,4,4.54611089166667,83.9102643583333,28239.3875741
17,11,10,NoFlickerHalf,15,1422_half_length.avi,guitar37_half_length.wav,guitar,4,2.94497659999979,0,17,53,15,115,170,2,3,4,4.54611089166667,83.9102643583333,28246.9374106
17,12,10,NoFlickerFull,115,1370_half_amp.avi,guitar9_half_amp.wav,guitar,1,4.83230610000101,1,17,115,15,170,53,1,13,1,4.54611089166667,83.9102643583333,28252.3869928
17,13,10,NoFlickerFull,186,1031_half_amp.avi,synth7_half_amp.wav,synth,3,4.60459030000129,1,17,128,54,186,61,3,7,5,4.54611089166667,83.9102643583333,28259.5704595
17,14,10,NoFlickerHalf,106,1113_half_length.avi,ep29_half_length.wav,ep,3,5.50534619999962,0,17,189,106,6,123,2,4,4,4.54611089166667,83.9102643583333,28266.2286441
17,15,10,NoFlickerHalf,75,1040_half_length.avi,willow17_half_length.wav,willow,1,4.49125060000006,1,17,75,92,153,156,1,12,3,4.54611089166667,83.9102643583333,28274.4948182
17,16,10,NoFlickerFull,123,1067_half_amp.avi,ep37_half_amp.wav,ep,3,4.19278800000029,1,17,106,6,123,189,3,11,5,4.54611089166667,83.9102643583333,28281.9699616
17,1,11,NoFlickerFull,180,1006_half_amp.avi,ep4_half_amp.wav,ep,3,5.95248240000001,1,17,117,65,180,25,3,3,4,5.07245148,83.9102643583333,28433.4580704
17,2,11,NoFlickerFull,117,1144_half_amp.avi,ep39_half_amp.wav,ep,3,3.97300819999873,1,17,25,180,117,65,3,6,4,5.07245148,83.9102643583333,28442.1580034
17,3,11,NoFlickerFull,161,1433_half_amp.avi,guitar2_half_amp.wav,guitar,2,5.95673049999823,0,17,179,93,3,161,4,8,3,5.07245148,83.9102643583333,28448.282705
17,4,11,NoFlickerFull,157,1225_half_amp.avi,willow14_half_amp.wav,willow,2,16.2555578000029,1,17,178,157,55,22,2,16,4,5.07245148,83.9102643583333,28456.1742135
17,5,11,NoFlickerHalf,55,1044_half_length.avi,willow4_half_length.wav,willow,1,7.78576009999961,0,17,157,55,22,178,2,2,4,5.07245148,83.9102643583333,28474.0989391
17,6,11,NoFlickerHalf,93,1046_half_length.avi,guitar18_half_length.wav,guitar,1,11.8162480999999,0,17,179,93,161,3,2,15,1,5.07245148,83.9102643583333,28484.8988373
17,7,11,NoFlickerFull,178,1057_half_amp.avi,willow9_half_amp.wav,willow,2,5.64884270000039,1,17,157,178,55,22,2,12,3,5.07245148,83.9102643583333,28500.2901602
17,8,11,NoFlickerFull,135,1154_half_amp.avi,synth38_half_amp.wav,synth,4,10.7321797999975,1,17,109,70,125,135,4,10,1,5.07245148,83.9102643583333,28509.0232967
17,9,11,NoFlickerFull,125,1050_half_amp.avi,synth36_half_amp.wav,synth,1,4.85160239999823,1,17,125,70,135,109,1,11,1,5.07245148,83.9102643583333,28522.7976868
17,10,11,NoFlickerHalf,70,1093_half_length.avi,synth6_half_length.wav,synth,3,11.6725454000007,0,17,135,70,125,109,2,14,5,5.07245148,83.9102643583333,28530.1559247
17,11,11,NoFlickerFull,179,1186_half_amp.avi,guitar30_half_amp.wav,guitar,3,5.82966079999824,0,17,93,3,161,179,4,5,5,5.07245148,83.9102643583333,28545.3808333
17,12,11,NoFlickerHalf,3,1156_half_length.avi,guitar31_half_length.wav,guitar,1,2.70752210000137,1,17,3,179,93,161,1,13,5,5.07245148,83.9102643583333,28552.7721187
17,13,11,NoFlickerHalf,109,1299_half_length.avi,synth18_half_length.wav,synth,3,5.75361120000161,0,17,125,135,70,109,4,1,4,5.07245148,83.9102643583333,28558.7803671
17,14,11,NoFlickerHalf,65,1013_half_length.avi,ep22_half_length.wav,ep,2,6.5156078,1,17,25,65,180,117,2,4,1,5.07245148,83.9102643583333,28568.0969957
17,15,11,NoFlickerHalf,22,1212_half_length.avi,willow20_half_length.wav,willow,4,4.63590889999978,1,17,55,178,157,22,4,9,4,5.07245148,83.9102643583333,28577.8048219
17,16,11,NoFlickerHalf,25,1094_half_length.avi,ep15_half_length.wav,ep,3,5.43152430000191,1,17,117,180,25,65,3,7,5,5.07245148,83.9102643583333,28585.3213959
17,1,12,SyncTheta,60,1249_4Hz.avi,acoustic20_zero_4Hz.wav,acoustic,2,4.43325710000136,1,17,113,60,169,39,2,8,1,5.46138305,83.9102643583333,28761.0260691
17,2,12,AsyncTheta,169,1083_4Hz.avi,acoustic43_oneeighty_4Hz.wav,acoustic,3,6.86813460000121,0,17,169,60,39,113,1,13,4,5.46138305,83.9102643583333,28769.0674567
17,3,12,AsyncTheta,124,1183_4Hz.avi,choir24_oneeighty_4Hz.wav,choir,4,6.51334629999837,0,17,160,13,124,72,3,4,1,5.46138305,83.9102643583333,28778.6420937
17,4,12,SyncTheta,85,1383_4Hz.avi,orch23_zero_4Hz.wav,orch,3,5.0354479000016,0,17,192,81,143,85,4,10,4,5.46138305,83.9102643583333,28787.3418504
17,5,12,AsyncTheta,192,1231_4Hz.avi,orch32_oneeighty_4Hz.wav,orch,1,10.0266296000009,1,17,192,81,85,143,1,1,4,5.46138305,83.9102643583333,28794.6084939
17,6,12,SyncTheta,13,1201_4Hz.avi,choir7_zero_4Hz.wav,choir,2,3.87901860000056,1,17,72,13,160,124,2,11,1,5.46138305,83.9102643583333,28808.0667008
17,7,12,SyncTheta,81,1444_4Hz.avi,orch4_zero_4Hz.wav,orch,2,9.94745930000136,0,17,81,85,143,192,1,7,2,5.46138305,83.9102643583333,28814.5246243
17,8,12,AsyncTheta,136,1175_4Hz.avi,dar4_oneeighty_4Hz.wav,dar,3,11.7480284000012,0,17,2,80,154,136,4,12,2,5.46138305,83.9102643583333,28827.7161206
17,9,12,SyncTheta,2,1431_4Hz.avi,dar24_zero_4Hz.wav,dar,4,7.79824910000025,0,17,136,2,154,80,2,14,4,5.46138305,83.9102643583333,28842.0824892
17,10,12,AsyncTheta,154,1074_4Hz.avi,dar5_oneeighty_4Hz.wav,dar,3,8.30025580000074,0,17,2,80,136,154,4,16,4,5.46138305,83.9102643583333,28852.1655894
17,11,12,AsyncTheta,160,1421_4Hz.avi,choir13_oneeighty_4Hz.wav,choir,1,7.88018739999825,0,17,72,13,160,124,3,3,4,5.46138305,83.9102643583333,28862.7153913
17,12,12,SyncTheta,72,1097_4Hz.avi,choir29_zero_4Hz.wav,choir,3,5.53546130000177,1,17,124,13,72,160,3,5,4,5.46138305,83.9102643583333,28872.7233332
17,13,12,SyncTheta,80,1082_4Hz.avi,dar15_zero_4Hz.wav,dar,4,5.86008489999949,0,17,80,136,154,2,1,2,1,5.46138305,83.9102643583333,28881.2397445
17,14,12,AsyncTheta,113,1037_4Hz.avi,acoustic23_oneeighty_4Hz.wav,acoustic,3,5.33785870000065,0,17,60,39,169,113,4,9,1,5.46138305,83.9102643583333,28889.6395473
17,15,12,AsyncTheta,143,1127_4Hz.avi,orch11_oneeighty_4Hz.wav,orch,3,13.1239695999975,0,17,192,85,81,143,4,6,2,5.46138305,83.9102643583333,28897.356143
17,16,12,SyncTheta,39,1061_4Hz.avi,acoustic11_zero_4Hz.wav,acoustic,2,5.43197409999993,0,17,60,113,39,169,3,15,1,5.46138305,83.9102643583333,28913.26443
