ParticipantID,TrialNumber,BlockNumber,Condition,ClipID,VideoFile,SoundFile,SoundCategory,Response,RT,Accuracy,ConditionID,Frame1,Frame2,Frame3,Frame4,CorrectKey,EncodingPosition,Rating,BlockDuration,ExperimentDuration,MemoryTestOnset
24,1,1,NoFlickerFull,105,1003_half_amp.avi,acoustic6_half_amp.wav,acoustic,2,6.84866390000002,1,24,5,105,79,20,2,7,1,7.86706103333333,61.4599171583333,545.2810849
24,2,1,NoFlickerFull,121,1354_half_amp.avi,choir22_half_amp.wav,choir,1,4.42228578483787,1,24,121,97,52,63,1,3,1,7.86706103333333,61.4599171583333,554.432102815162
24,3,1,NoFlickerFull,97,1368_half_amp.avi,choir30_half_amp.wav,choir,2,2.93903739999996,1,24,121,97,52,63,2,5,4,7.86706103333333,61.4599171583333,561.9813348
24,4,1,NoFlickerHalf,40,1239_half_length.avi,dar6_half_length.wav,dar,3,3.99594520000005,0,24,114,40,64,147,2,16,1,7.86706103333333,61.4599171583333,568.0981319
24,5,1,NoFlickerFull,188,1036_half_amp.avi,orch26_half_amp.wav,orch,3,4.25656320000007,0,24,102,28,158,188,4,10,2,7.86706103333333,61.4599171583333,575.0313808
24,6,1,NoFlickerHalf,52,1387_half_length.avi,choir2_half_length.wav,choir,1,5.68893010000011,1,24,52,97,63,121,1,14,1,7.86706103333333,61.4599171583333,581.6311771
24,7,1,NoFlickerFull,114,1322_half_amp.avi,dar14_half_amp.wav,dar,3,8.11755970000002,0,24,40,64,147,114,4,4,3,7.86706103333333,61.4599171583333,589.897894
24,8,1,NoFlickerHalf,64,1098_half_length.avi,dar11_half_length.wav,dar,4,6.00891530000001,0,24,147,114,64,40,3,8,1,7.86706103333333,61.4599171583333,599.6476337
24,9,1,NoFlickerHalf,63,1128_half_length.avi,choir26_half_length.wav,choir,2,9.07878500000004,0,24,121,52,97,63,4,2,3,7.86706103333333,61.4599171583333,608.2721164
24,10,1,NoFlickerHalf,28,1148_half_length.avi,orch19_half_length.wav,orch,1,4.58657429999994,1,24,28,102,158,188,1,11,1,7.86706103333333,61.4599171583333,619.1968464
24,11,1,NoFlickerHalf,102,1012_half_length.avi,orch18_half_length.wav,orch,4,6.83589940000002,1,24,28,158,188,102,4,9,2,7.86706103333333,61.4599171583333,627.0385416
24,12,1,NoFlickerFull,158,1206_half_amp.avi,orch6_half_amp.wav,orch,3,4.22581100000002,0,24,158,28,188,102,1,15,1,7.86706103333333,61.4599171583333,637.3049495
24,13,1,NoFlickerFull,79,1071_half_amp.avi,acoustic17_half_amp.wav,acoustic,1,8.61289409999995,0,24,105,5,20,79,4,13,1,7.86706103333333,61.4599171583333,644.3961281
24,14,1,NoFlickerHalf,20,1236_half_length.avi,acoustic25_half_length.wav,acoustic,2,7.09923379999998,1,24,5,20,79,105,2,6,2,7.86706103333333,61.4599171583333,655.004458
24,15,1,NoFlickerHalf,5,1381_half_length.avi,acoustic1_half_length.wav,acoustic,1,3.54381620000004,0,24,105,79,5,20,3,1,1,7.86706103333333,61.4599171583333,663.9790772
24,16,1,NoFlickerFull,147,1304_half_amp.avi,dar10_half_amp.wav,dar,3,4.43430219999993,0,24,40,64,114,147,4,12,1,7.86706103333333,61.4599171583333,670.7287942
24,1,2,SyncTheta,41,1132_4Hz.avi,ep10_zero_4Hz.wav,ep,3,3.87235129999999,0,24,150,176,87,41,4,11,1,5.80328643,61.4599171583333,892.6646273
24,2,2,AsyncTheta,185,1131_4Hz.avi,guitar45_oneeighty_4Hz.wav,guitar,2,12.5222155,0,24,185,59,67,112,1,13,1,5.80328643,61.4599171583333,899.247691
24,3,2,AsyncTheta,112,1388_4Hz.avi,guitar39_oneeighty_4Hz.wav,guitar,1,5.32671270000003,0,24,185,112,59,67,2,15,3,5.80328643,61.4599171583333,914.0723945
24,4,2,SyncTheta,71,1076_4Hz.avi,synth21_zero_4Hz.wav,synth,2,3.68310680000002,0,24,71,155,8,127,1,4,2,5.80328643,61.4599171583333,921.9720685
24,5,2,SyncTheta,32,1360_4Hz.avi,willow10_zero_4Hz.wav,willow,1,6.54938870000001,1,24,32,152,171,37,1,9,1,5.80328643,61.4599171583333,927.8051004
24,6,2,SyncTheta,67,1310_4Hz.avi,guitar21_zero_4Hz.wav,guitar,2,6.87684139999999,0,24,185,59,67,112,3,16,2,5.80328643,61.4599171583333,937.15512
24,7,2,AsyncTheta,127,1411_4Hz.avi,synth28_oneeighty_4Hz.wav,synth,2,5.09403950000001,0,24,155,8,71,127,4,1,3,5.80328643,61.4599171583333,946.4880316
24,8,2,SyncTheta,8,1252_4Hz.avi,synth25_zero_4Hz.wav,synth,1,3.93993769999997,0,24,71,127,8,155,3,2,4,5.80328643,61.4599171583333,954.8796475
24,9,2,SyncTheta,59,1346_4Hz.avi,guitar33_zero_4Hz.wav,guitar,4,6.19926409999994,0,24,59,67,185,112,1,6,1,5.80328643,61.4599171583333,960.9711492
24,10,2,SyncTheta,37,1237_4Hz.avi,willow15_zero_4Hz.wav,willow,2,3.7347264,0,24,37,152,32,171,1,10,2,5.80328643,61.4599171583333,970.0206987
24,11,2,AsyncTheta,171,1280_4Hz.avi,willow19_oneeighty_4Hz.wav,willow,3,3.7917827,1,24,152,37,171,32,3,7,3,5.80328643,61.4599171583333,975.8955542
24,12,2,AsyncTheta,152,1445_4Hz.avi,willow2_oneeighty_4Hz.wav,willow,4,7.72730569999999,1,24,37,32,171,152,4,12,2,5.80328643,61.4599171583333,982.5870662
24,13,2,SyncTheta,87,1142_4Hz.avi,ep3_zero_4Hz.wav,ep,3,6.86571349999997,0,24,41,176,150,87,4,14,3,5.80328643,61.4599171583333,992.0284342
24,14,2,AsyncTheta,150,1394_4Hz.avi,ep11_oneeighty_4Hz.wav,ep,1,5.63059150000004,0,24,176,150,41,87,2,8,2,5.80328643,61.4599171583333,1002.0117279
24,15,2,AsyncTheta,176,1405_4Hz.avi,ep46_oneeighty_4Hz.wav,ep,3,6.60178789999998,1,24,87,41,176,150,3,5,3,5.80328643,61.4599171583333,1009.7447653
24,16,2,AsyncTheta,155,1042_4Hz.avi,synth10_oneeighty_4Hz.wav,synth,2,3.80941610000002,0,24,155,127,71,8,1,3,1,5.80328643,61.4599171583333,1019.7612491
24,1,3,SyncTheta,16,1442_4Hz.avi,ep34_zero_4Hz.wav,ep,1,5.43239140000014,0,24,144,177,24,16,4,11,4,4.74560425333333,61.4599171583333,1191.5730494
24,2,3,SyncTheta,77,1008_4Hz.avi,guitar42_zero_4Hz.wav,guitar,4,5.61718949999999,1,24,183,46,151,77,4,7,3,4.74560425333333,61.4599171583333,1200.0645894
24,3,3,AsyncTheta,151,1259_4Hz.avi,guitar43_oneeighty_4Hz.wav,guitar,2,5.13103250000017,0,24,183,46,77,151,4,8,3,4.74560425333333,61.4599171583333,1208.8312591
24,4,3,SyncTheta,100,1107_4Hz.avi,synth23_zero_4Hz.wav,synth,3,5.06772279999996,0,24,184,95,129,100,4,15,1,4.74560425333333,61.4599171583333,1216.1560689
24,5,3,AsyncTheta,118,1020_4Hz.avi,willow22_oneeighty_4Hz.wav,willow,1,3.64430809999999,1,24,118,66,167,27,1,4,1,4.74560425333333,61.4599171583333,1223.9475333
24,6,3,AsyncTheta,183,1374_4Hz.avi,guitar16_oneeighty_4Hz.wav,guitar,1,4.50366329999997,1,24,183,46,151,77,1,10,1,4.74560425333333,61.4599171583333,1229.7221327
24,7,3,SyncTheta,95,1359_4Hz.avi,synth33_zero_4Hz.wav,synth,4,4.5503283999999,1,24,184,129,100,95,4,5,2,4.74560425333333,61.4599171583333,1236.9138637
24,8,3,AsyncTheta,184,1052_4Hz.avi,synth40_oneeighty_4Hz.wav,synth,2,4.89838830000008,0,24,184,100,129,95,1,6,1,4.74560425333333,61.4599171583333,1244.2717429
24,9,3,SyncTheta,46,1210_4Hz.avi,guitar48_zero_4Hz.wav,guitar,4,5.53876760000003,0,24,46,77,183,151,1,1,3,4.74560425333333,61.4599171583333,1252.6551123
24,10,3,AsyncTheta,167,1177_4Hz.avi,willow24_oneeighty_4Hz.wav,willow,3,7.60549930000002,0,24,27,167,66,118,2,13,1,4.74560425333333,61.4599171583333,1260.6213468
24,11,3,SyncTheta,66,1215_4Hz.avi,willow18_zero_4Hz.wav,willow,4,4.4818702,0,24,118,66,167,27,2,2,2,4.74560425333333,61.4599171583333,1270.8962024
24,12,3,SyncTheta,27,1202_4Hz.avi,willow16_zero_4Hz.wav,willow,4,3.7698292,0,24,27,66,118,167,1,16,3,4.74560425333333,61.4599171583333,1277.1378024
24,13,3,SyncTheta,24,1217_4Hz.avi,ep44_zero_4Hz.wav,ep,3,7.11278279999988,0,24,144,16,177,24,4,12,1,4.74560425333333,61.4599171583333,1282.7793271
24,14,3,AsyncTheta,144,1255_4Hz.avi,ep28_oneeighty_4Hz.wav,ep,2,3.45405310000001,1,24,16,144,177,24,2,9,2,4.74560425333333,61.4599171583333,1292.7872326
24,15,3,AsyncTheta,177,1283_4Hz.avi,ep38_oneeighty_4Hz.wav,ep,2,4.55498220000004,0,24,144,16,177,24,3,3,2,4.74560425333333,61.4599171583333,1297.8706006
24,16,3,AsyncTheta,129,1286_4Hz.avi,synth30_oneeighty_4Hz.wav,synth,2,3.52707029999988,0,24,129,100,95,184,1,14,2,4.74560425333333,61.4599171583333,1304.9618401
24,1,4,NoFlickerFull,104,1111_half_amp.avi,acoustic31_half_amp.wav,acoustic,2,7.7669171,0,24,1,58,104,83,3,9,1,4.911002955,61.4599171583333,1471.8994515
24,2,4,NoFlickerFull,76,1293_half_amp.avi,choir23_half_amp.wav,choir,3,4.22275930000001,1,24,88,10,76,11,3,11,2,4.911002955,61.4599171583333,1481.3323148
24,3,4,NoFlickerHalf,11,1448_half_length.avi,choir36_half_length.wav,choir,2,3.54549629999997,1,24,76,11,10,88,2,12,1,4.911002955,61.4599171583333,1488.3573369
24,4,4,NoFlickerHalf,29,1158_half_length.avi,dar23_half_length.wav,dar,4,3.95572919999995,1,24,162,82,49,29,4,8,1,4.911002955,61.4599171583333,1493.5905387
24,5,4,NoFlickerFull,134,1026_half_amp.avi,orch16_half_amp.wav,orch,1,7.48285910000004,0,24,57,134,42,137,2,10,3,4.911002955,61.4599171583333,1499.1403979
24,6,4,NoFlickerHalf,10,1179_half_length.avi,choir4_half_length.wav,choir,4,4.25326309999991,0,24,76,11,10,88,3,14,3,4.911002955,61.4599171583333,1509.8734589
24,7,4,NoFlickerHalf,49,1221_half_length.avi,dar21_half_length.wav,dar,1,6.23723229999996,0,24,82,29,49,162,3,4,1,4.911002955,61.4599171583333,1515.9316157
24,8,4,NoFlickerFull,162,1358_half_amp.avi,dar7_half_amp.wav,dar,1,6.35153939999987,1,24,162,82,29,49,1,5,2,4.911002955,61.4599171583333,1524.6478259
24,9,4,NoFlickerFull,88,1191_half_amp.avi,choir20_half_amp.wav,choir,2,7.36269319999997,0,24,10,76,11,88,4,7,2,4.911002955,61.4599171583333,1532.997579
24,10,4,NoFlickerHalf,42,1339_half_length.avi,orch31_half_length.wav,orch,3,7.01803480000012,1,24,137,57,42,134,3,13,1,4.911002955,61.4599171583333,1542.6223145
24,11,4,NoFlickerHalf,57,1309_half_length.avi,orch7_half_length.wav,orch,3,5.9717447999999,1,24,134,137,57,42,3,2,2,4.911002955,61.4599171583333,1553.080562
24,12,4,NoFlickerFull,137,1303_half_amp.avi,orch10_half_amp.wav,orch,4,5.44430000000011,1,24,42,134,57,137,4,16,2,4.911002955,61.4599171583333,1562.2555664
24,13,4,NoFlickerFull,83,1139_half_amp.avi,acoustic27_half_amp.wav,acoustic,3,5.28735370000004,0,24,83,1,58,104,1,15,2,4.911002955,61.4599171583333,1571.2553651
24,14,4,NoFlickerHalf,1,1064_half_length.avi,acoustic12_half_length.wav,acoustic,3,5.33632480000006,1,24,104,58,1,83,3,3,1,4.911002955,61.4599171583333,1579.1133229
24,15,4,NoFlickerHalf,58,1323_half_length.avi,acoustic29_half_length.wav,acoustic,3,6.88091639999993,0,24,1,104,83,58,4,1,2,4.911002955,61.4599171583333,1587.5295281
24,16,4,NoFlickerFull,82,1449_half_amp.avi,dar17_half_amp.wav,dar,1,6.84767729999999,0,24,49,82,162,29,2,6,1,4.911002955,61.4599171583333,1596.5125314
24,1,5,NoFlickerFull,148,1121_half_amp.avi,acoustic26_half_amp.wav,acoustic,2,8.28299109999989,0,24,21,190,44,148,4,10,1,4.89001234666667,61.4599171583333,1778.9828414
24,2,5,NoFlickerHalf,68,1023_half_length.avi,choir3_half_length.wav,choir,2,4.63027319999992,0,24,69,159,78,68,4,4,1,4.89001234666667,61.4599171583333,1789.6243984
24,3,5,NoFlickerFull,78,1301_half_amp.avi,choir11_half_amp.wav,choir,1,4.04830319999996,1,24,78,69,159,68,1,5,3,4.89001234666667,61.4599171583333,1795.9991278
24,4,5,NoFlickerFull,191,1314_half_amp.avi,dar19_half_amp.wav,dar,3,6.12375529999986,0,24,14,191,34,122,2,16,3,4.89001234666667,61.4599171583333,1802.2909225
24,5,5,NoFlickerHalf,30,1016_half_length.avi,orch14_half_length.wav,orch,2,10.5969777,1,24,141,30,142,36,2,9,4,4.89001234666667,61.4599171583333,1810.7655073
24,6,5,NoFlickerFull,159,1091_half_amp.avi,choir8_half_amp.wav,choir,2,3.58894859999987,0,24,78,69,159,68,3,14,2,4.89001234666667,61.4599171583333,1824.5318245
24,7,5,NoFlickerHalf,34,1319_half_length.avi,dar22_half_length.wav,dar,3,4.76206530000013,0,24,122,14,191,34,4,3,2,4.89001234666667,61.4599171583333,1831.6399253
24,8,5,NoFlickerHalf,14,1416_half_length.avi,dar1_half_length.wav,dar,1,6.21879820000004,0,24,122,34,191,14,4,7,1,4.89001234666667,61.4599171583333,1838.5813709
24,9,5,NoFlickerHalf,69,1216_half_length.avi,choir32_half_length.wav,choir,2,3.89073740000003,0,24,68,78,69,159,3,1,3,4.89001234666667,61.4599171583333,1847.3481044
24,10,5,NoFlickerFull,142,1155_half_amp.avi,orch9_half_amp.wav,orch,1,3.98920410000005,0,24,141,36,30,142,4,12,2,4.89001234666667,61.4599171583333,1853.7226775
24,11,5,NoFlickerHalf,36,1284_half_length.avi,orch29_half_length.wav,orch,4,3.66170429999988,1,24,141,142,30,36,4,8,1,4.89001234666667,61.4599171583333,1860.4724701
24,12,5,NoFlickerFull,141,1401_half_amp.avi,orch12_half_amp.wav,orch,1,5.10603590000005,1,24,141,142,36,30,1,15,4,4.89001234666667,61.4599171583333,1865.7807125
24,13,5,NoFlickerHalf,21,1112_half_length.avi,acoustic32_half_length.wav,acoustic,1,4.04286230000002,0,24,148,44,190,21,4,13,1,4.89001234666667,61.4599171583333,1873.5304104
24,14,5,NoFlickerFull,190,1427_half_amp.avi,acoustic46_half_amp.wav,acoustic,1,4.17785219999996,0,24,44,21,190,148,3,6,2,4.89001234666667,61.4599171583333,1879.830422
24,15,5,NoFlickerHalf,44,1254_half_length.avi,acoustic48_half_length.wav,acoustic,4,3.96820479999997,0,24,21,148,44,190,3,2,1,4.89001234666667,61.4599171583333,1885.6719482
24,16,5,NoFlickerFull,122,1289_half_amp.avi,dar3_half_amp.wav,dar,1,4.81057250000003,0,24,34,191,122,14,3,11,2,4.89001234666667,61.4599171583333,1892.1719472
24,1,6,SyncTheta,26,1190_4Hz.avi,ep7_zero_4Hz.wav,ep,3,4.71822629999997,0,24,26,138,99,173,1,8,2,4.71599768666667,61.4599171583333,2049.2927145
24,2,6,SyncTheta,73,1369_4Hz.avi,guitar19_zero_4Hz.wav,guitar,1,7.28930709999986,0,24,172,168,7,73,4,11,1,4.71599768666667,61.4599171583333,2055.9258928
24,3,6,SyncTheta,7,1017_4Hz.avi,guitar47_zero_4Hz.wav,guitar,1,3.67229209999959,1,24,7,73,168,172,1,15,1,4.71599768666667,61.4599171583333,2065.9756599
24,4,6,AsyncTheta,163,1441_4Hz.avi,synth27_oneeighty_4Hz.wav,synth,4,6.64428610000004,0,24,163,50,140,89,1,13,1,4.71599768666667,61.4599171583333,2071.5255622
24,5,6,AsyncTheta,130,1081_4Hz.avi,willow5_oneeighty_4Hz.wav,willow,4,9.31872199999998,0,24,108,130,48,120,2,7,3,4.71599768666667,61.4599171583333,2081.4671387
24,6,6,AsyncTheta,172,1350_4Hz.avi,guitar10_oneeighty_4Hz.wav,guitar,3,6.70050390000006,0,24,172,168,73,7,1,16,2,4.71599768666667,61.4599171583333,2092.6666301
24,7,6,SyncTheta,89,1393_4Hz.avi,synth41_zero_4Hz.wav,synth,1,6.71581616426329,0,24,140,50,163,89,4,2,1,4.71599768666667,61.4599171583333,2102.42541443574
24,8,6,SyncTheta,50,1049_4Hz.avi,synth43_zero_4Hz.wav,synth,4,9.2809857000002,1,24,163,89,140,50,4,6,1,4.71599768666667,61.4599171583333,2112.1411266
24,9,6,AsyncTheta,168,1204_4Hz.avi,guitar36_oneeighty_4Hz.wav,guitar,3,5.6274328999998,1,24,172,73,168,7,3,4,1,4.71599768666667,61.4599171583333,2123.5408602
24,10,6,AsyncTheta,120,1365_4Hz.avi,willow21_oneeighty_4Hz.wav,willow,3,4.48515249999991,0,24,120,48,130,108,1,12,1,4.71599768666667,61.4599171583333,2130.8572705
24,11,6,SyncTheta,48,1021_4Hz.avi,willow12_zero_4Hz.wav,willow,1,3.73626120000017,0,24,120,48,108,130,2,3,3,4.71599768666667,61.4599171583333,2138.7903518
24,12,6,SyncTheta,108,1415_4Hz.avi,willow3_zero_4Hz.wav,willow,3,5.50094170000011,0,24,120,108,48,130,2,14,2,4.71599768666667,61.4599171583333,2144.7321499
24,13,6,SyncTheta,99,1173_4Hz.avi,ep6_zero_4Hz.wav,ep,1,5.72767269999986,0,24,173,26,138,99,4,10,2,4.71599768666667,61.4599171583333,2153.8484229
24,14,6,AsyncTheta,138,1149_4Hz.avi,ep2_oneeighty_4Hz.wav,ep,2,4.24335370000017,1,24,26,138,99,173,2,5,4,4.71599768666667,61.4599171583333,2161.6064681
24,15,6,AsyncTheta,173,1348_4Hz.avi,ep31_oneeighty_4Hz.wav,ep,3,5.23470039999984,0,24,173,138,26,99,1,1,3,4.71599768666667,61.4599171583333,2168.9646601
24,16,6,AsyncTheta,140,1270_4Hz.avi,synth17_oneeighty_4Hz.wav,synth,1,3.56438389999994,0,24,50,163,89,140,4,9,1,4.71599768666667,61.4599171583333,2176.5979085
24,1,7,SyncTheta,101,1295_4Hz.avi,ep40_zero_4Hz.wav,ep,4,5.85202449999997,0,24,132,101,86,166,2,7,2,4.85066400333333,61.4599171583333,2338.2186855
24,2,7,SyncTheta,84,1294_4Hz.avi,guitar6_zero_4Hz.wav,guitar,1,3.70982920000006,0,24,146,90,164,84,4,13,2,4.85066400333333,61.4599171583333,2346.4101446
24,3,7,SyncTheta,90,1273_4Hz.avi,guitar23_zero_4Hz.wav,guitar,2,6.07411209999964,0,24,164,84,146,90,4,15,2,4.85066400333333,61.4599171583333,2353.0683066
24,4,7,SyncTheta,35,1039_4Hz.avi,synth5_zero_4Hz.wav,synth,2,4.613022,0,24,35,111,131,51,1,14,2,4.85066400333333,61.4599171583333,2362.6599571
24,5,7,AsyncTheta,119,1189_4Hz.avi,willow11_oneeighty_4Hz.wav,willow,3,6.28899010000032,1,24,149,94,119,18,3,9,1,4.85066400333333,61.4599171583333,2369.817999
24,6,7,AsyncTheta,146,1005_4Hz.avi,guitar14_oneeighty_4Hz.wav,guitar,4,7.34372219999977,0,24,84,146,164,90,2,16,2,4.85066400333333,61.4599171583333,2378.8512332
24,7,7,AsyncTheta,111,1390_4Hz.avi,synth3_oneeighty_4Hz.wav,synth,2,7.39783850000003,1,24,131,111,51,35,2,2,3,4.85066400333333,61.4599171583333,2388.0507635
24,8,7,AsyncTheta,131,1366_4Hz.avi,synth34_oneeighty_4Hz.wav,synth,1,5.15423729999975,0,24,35,131,111,51,2,3,2,4.85066400333333,61.4599171583333,2398.2921559
24,9,7,AsyncTheta,164,1087_4Hz.avi,guitar17_oneeighty_4Hz.wav,guitar,1,4.66646750000018,1,24,164,84,90,146,1,8,1,4.85066400333333,61.4599171583333,2406.4086349
24,10,7,SyncTheta,94,1109_4Hz.avi,willow6_zero_4Hz.wav,willow,3,9.28330300000016,0,24,119,94,18,149,2,10,4,4.85066400333333,61.4599171583333,2414.441907
24,11,7,SyncTheta,18,1101_4Hz.avi,willow13_zero_4Hz.wav,willow,3,4.53445090000014,0,24,18,149,94,119,1,6,3,4.85066400333333,61.4599171583333,2426.2415183
24,12,7,AsyncTheta,149,1200_4Hz.avi,willow8_oneeighty_4Hz.wav,willow,2,9.54939460000014,1,24,94,149,119,18,2,12,2,4.85066400333333,61.4599171583333,2432.6663223
24,13,7,SyncTheta,86,1278_4Hz.avi,ep35_zero_4Hz.wav,ep,1,3.82278039999983,1,24,86,101,132,166,1,11,4,4.85066400333333,61.4599171583333,2444.2077543
24,14,7,AsyncTheta,166,1227_4Hz.avi,ep5_oneeighty_4Hz.wav,ep,4,4.46194649999961,0,24,132,86,166,101,3,4,1,4.85066400333333,61.4599171583333,2450.8910933
24,15,7,AsyncTheta,132,1356_4Hz.avi,ep30_oneeighty_4Hz.wav,ep,2,6.32649720000018,1,24,86,132,166,101,2,1,4,4.85066400333333,61.4599171583333,2457.6823261
24,16,7,SyncTheta,51,1331_4Hz.avi,synth47_zero_4Hz.wav,synth,3,4.87632470000017,0,24,35,111,131,51,4,5,2,4.85066400333333,61.4599171583333,2466.5320893
24,1,8,NoFlickerHalf,47,1292_half_length.avi,acoustic28_half_length.wav,acoustic,1,5.35165099999995,0,24,133,23,47,175,3,8,1,4.62262807666667,61.4599171583333,2623.4948354
24,2,8,NoFlickerHalf,38,1184_half_length.avi,choir33_half_length.wav,choir,3,5.37836470000002,0,24,139,38,19,181,2,9,1,4.62262807666667,61.4599171583333,2631.2198737
24,3,8,NoFlickerFull,139,1192_half_amp.avi,choir5_half_amp.wav,choir,1,4.92699830000038,0,24,181,19,139,38,3,14,1,4.62262807666667,61.4599171583333,2639.5111236
24,4,8,NoFlickerFull,187,1164_half_amp.avi,dar12_half_amp.wav,dar,2,5.44834450000008,0,24,31,103,56,187,4,16,4,4.62262807666667,61.4599171583333,2647.7942456
24,5,8,NoFlickerHalf,33,1136_half_length.avi,orch38_half_length.wav,orch,3,5.01506710000012,0,24,33,17,165,145,1,10,1,4.62262807666667,61.4599171583333,2655.1440669
24,6,8,NoFlickerFull,181,1168_half_amp.avi,choir1_half_amp.wav,choir,2,6.11761750000005,0,24,38,139,181,19,3,15,5,4.62262807666667,61.4599171583333,2661.9522503
24,7,8,NoFlickerHalf,56,1063_half_length.avi,dar16_half_length.wav,dar,3,11.3835650000001,0,24,187,56,103,31,2,2,1,4.62262807666667,61.4599171583333,2671.6103343
24,8,8,NoFlickerHalf,31,1404_half_length.avi,dar8_half_length.wav,dar,4,2.2390277999998,1,24,56,187,103,31,4,6,2,4.62262807666667,61.4599171583333,2685.6435144
24,9,8,NoFlickerHalf,19,1247_half_length.avi,choir38_half_length.wav,choir,4,5.16288600000007,0,24,139,19,181,38,2,1,4,4.62262807666667,61.4599171583333,2689.4434132
24,10,8,NoFlickerFull,145,1352_half_amp.avi,orch39_half_amp.wav,orch,4,5.28111829999989,0,24,145,165,33,17,1,11,3,4.62262807666667,61.4599171583333,2696.3013113
24,11,8,NoFlickerFull,165,1410_half_amp.avi,orch43_half_amp.wav,orch,1,4.37483960000009,0,24,145,17,33,165,4,4,2,4.62262807666667,61.4599171583333,2704.8844039
24,12,8,NoFlickerHalf,17,1162_half_length.avi,orch1_half_length.wav,orch,2,4.36624110000002,1,24,33,17,145,165,2,12,3,4.62262807666667,61.4599171583333,2712.7760214
24,13,8,NoFlickerFull,175,1103_half_amp.avi,acoustic10_half_amp.wav,acoustic,1,9.5888600000003,1,24,175,47,23,133,1,13,4,4.62262807666667,61.4599171583333,2719.3091289
24,14,8,NoFlickerFull,133,1341_half_amp.avi,acoustic14_half_amp.wav,acoustic,3,3.80999650000012,0,24,47,133,175,23,2,5,3,4.62262807666667,61.4599171583333,2730.7671336
24,15,8,NoFlickerHalf,23,1330_half_length.avi,acoustic47_half_length.wav,acoustic,2,4.8832139000001,1,24,175,23,47,133,2,3,3,4.62262807666667,61.4599171583333,2736.7505475
24,16,8,NoFlickerFull,103,1084_half_amp.avi,dar20_half_amp.wav,dar,1,4.51012870000022,0,24,56,31,187,103,4,7,3,4.62262807666667,61.4599171583333,2744.5002341
24,1,9,NoFlickerHalf,9,1054_half_length.avi,acoustic44_half_length.wav,acoustic,1,5.82632580000018,0,24,4,107,9,96,3,7,4,4.55793678833333,61.4599171583333,2915.2791491
24,2,9,NoFlickerFull,182,1277_half_amp.avi,choir39_half_amp.wav,choir,3,4.66436660000045,0,24,98,182,12,62,2,9,2,4.55793678833333,61.4599171583333,2922.8541917
24,3,9,NoFlickerHalf,62,1058_half_length.avi,choir19_half_length.wav,choir,3,3.77834129999974,0,24,98,62,182,12,2,11,1,4.55793678833333,61.4599171583333,2930.8121196
24,4,9,NoFlickerFull,116,1420_half_amp.avi,dar18_half_amp.wav,dar,2,4.04685440000003,1,24,43,116,126,45,2,13,2,4.55793678833333,61.4599171583333,2936.1202937
24,5,9,NoFlickerFull,174,1119_half_amp.avi,orch45_half_amp.wav,orch,1,9.40570310000021,0,24,91,174,110,74,2,6,2,4.55793678833333,61.4599171583333,2942.1453794
24,6,9,NoFlickerHalf,12,1077_half_length.avi,choir18_half_length.wav,choir,2,4.82253579999997,0,24,182,98,62,12,4,16,4,4.55793678833333,61.4599171583333,2954.1197793
24,7,9,NoFlickerFull,126,1298_half_amp.avi,dar9_half_amp.wav,dar,3,6.33431960000007,0,24,45,126,43,116,2,2,4,4.55793678833333,61.4599171583333,2962.3615429
24,8,9,NoFlickerHalf,43,1141_half_length.avi,dar13_half_length.wav,dar,4,4.87203039999986,0,24,43,116,126,45,1,8,2,4.55793678833333,61.4599171583333,2971.5444857
24,9,9,NoFlickerFull,98,1014_half_amp.avi,choir41_half_amp.wav,choir,2,4.68410630000017,1,24,12,98,62,182,2,5,3,4.55793678833333,61.4599171583333,2979.4027822
24,10,9,NoFlickerFull,110,1443_half_amp.avi,orch3_half_amp.wav,orch,1,3.6914311999999,1,24,110,91,74,174,1,12,3,4.55793678833333,61.4599171583333,2987.4441123
24,11,9,NoFlickerHalf,74,1337_half_length.avi,orch24_half_length.wav,orch,3,2.93300570000019,0,24,110,74,174,91,2,4,1,4.55793678833333,61.4599171583333,2993.8189451
24,12,9,NoFlickerHalf,91,1340_half_length.avi,orch46_half_length.wav,orch,2,2.29304009999987,0,24,110,74,174,91,4,15,2,4.55793678833333,61.4599171583333,2999.8770926
24,13,9,NoFlickerFull,96,1027_half_amp.avi,acoustic40_half_amp.wav,acoustic,2,3.81051419999994,1,24,9,96,107,4,2,14,1,4.55793678833333,61.4599171583333,3004.6435688
24,14,9,NoFlickerHalf,4,1167_half_length.avi,acoustic37_half_length.wav,acoustic,2,2.1967681000001,0,24,96,9,4,107,3,3,2,4.55793678833333,61.4599171583333,3010.9935393
24,15,9,NoFlickerFull,107,1265_half_amp.avi,acoustic16_half_amp.wav,acoustic,3,3.43275080000012,1,24,96,4,107,9,3,1,3,4.55793678833333,61.4599171583333,3014.7599879
24,16,9,NoFlickerHalf,45,1203_half_length.avi,dar2_half_length.wav,dar,1,2.00426280000011,1,24,45,116,126,43,1,10,1,4.55793678833333,61.4599171583333,3020.6931854
24,1,10,SyncTheta,106,1113_4Hz.avi,ep29_zero_4Hz.wav,ep,4,4.03780310000002,0,24,106,123,189,6,1,10,2,4.71507183666667,61.4599171583333,3179.7558928
24,2,10,AsyncTheta,115,1370_4Hz.avi,guitar9_oneeighty_4Hz.wav,guitar,2,5.96375579999994,0,24,15,53,170,115,4,3,3,4.71507183666667,61.4599171583333,3185.822472
24,3,10,AsyncTheta,170,1062_4Hz.avi,guitar3_oneeighty_4Hz.wav,guitar,4,3.53527080000003,0,24,170,115,53,15,1,12,2,4.71507183666667,61.4599171583333,3193.5057244
24,4,10,AsyncTheta,128,1269_4Hz.avi,synth14_oneeighty_4Hz.wav,synth,4,6.34682359999988,1,24,61,54,186,128,4,16,2,4.71507183666667,61.4599171583333,3200.4470178
24,5,10,AsyncTheta,153,1157_4Hz.avi,willow1_oneeighty_4Hz.wav,willow,3,10.7657543,0,24,75,92,156,153,4,7,4,4.71507183666667,61.4599171583333,3210.379981
24,6,10,SyncTheta,15,1422_4Hz.avi,guitar37_zero_4Hz.wav,guitar,4,6.67908659999966,0,24,53,115,15,170,3,15,2,4.71507183666667,61.4599171583333,3223.1047336
24,7,10,SyncTheta,61,1207_4Hz.avi,synth46_zero_4Hz.wav,synth,2,5.78403929999968,0,24,61,54,128,186,1,6,1,4.71507183666667,61.4599171583333,3233.1130634
24,8,10,AsyncTheta,186,1031_4Hz.avi,synth7_oneeighty_4Hz.wav,synth,3,5.0990796000001,0,24,61,186,128,54,2,9,3,4.71507183666667,61.4599171583333,3240.8292999
24,9,10,SyncTheta,53,1197_4Hz.avi,guitar46_zero_4Hz.wav,guitar,3,6.79459459999998,0,24,15,53,115,170,2,2,4,4.71507183666667,61.4599171583333,3248.4709981
24,10,10,SyncTheta,75,1040_4Hz.avi,willow17_zero_4Hz.wav,willow,2,4.67708970000012,1,24,156,75,153,92,2,8,3,4.71507183666667,61.4599171583333,3257.4205715
24,11,10,SyncTheta,92,1030_4Hz.avi,willow23_zero_4Hz.wav,willow,1,6.6590156000002,0,24,153,92,156,75,2,1,1,4.71507183666667,61.4599171583333,3264.9870594
24,12,10,AsyncTheta,156,1060_4Hz.avi,willow7_oneeighty_4Hz.wav,willow,4,3.37606229999983,0,24,153,156,75,92,2,14,2,4.71507183666667,61.4599171583333,3275.1534408
24,13,10,AsyncTheta,123,1067_4Hz.avi,ep37_oneeighty_4Hz.wav,ep,1,5.66077360000008,1,24,123,106,6,189,1,13,2,4.71507183666667,61.4599171583333,3281.3865997
24,14,10,AsyncTheta,189,1051_4Hz.avi,ep14_oneeighty_4Hz.wav,ep,4,3.91093659999979,1,24,106,6,123,189,4,5,2,4.71507183666667,61.4599171583333,3290.0947974
24,15,10,SyncTheta,6,1007_4Hz.avi,ep8_zero_4Hz.wav,ep,4,4.00608629999988,0,24,123,6,189,106,2,4,2,4.71507183666667,61.4599171583333,3295.7612788
24,16,10,SyncTheta,54,1181_4Hz.avi,synth12_zero_4Hz.wav,synth,4,3.53796990000001,0,24,61,128,54,186,3,11,2,4.71507183666667,61.4599171583333,3302.2946458
24,1,11,AsyncTheta,117,1144_4Hz.avi,ep39_oneeighty_4Hz.wav,ep,2,9.18084859999999,0,24,180,25,65,117,4,10,3,4.66153752833333,61.4599171583333,3458.2489867
24,2,11,SyncTheta,93,1046_4Hz.avi,guitar18_zero_4Hz.wav,guitar,4,5.50795440000002,0,24,179,3,93,161,3,3,1,4.66153752833333,61.4599171583333,3469.4820514
24,3,11,AsyncTheta,161,1433_4Hz.avi,guitar2_oneeighty_4Hz.wav,guitar,4,2.8376444999999,1,24,179,93,3,161,4,11,3,4.66153752833333,61.4599171583333,3477.4066847
24,4,11,SyncTheta,109,1299_4Hz.avi,synth18_zero_4Hz.wav,synth,3,8.68375900000001,0,24,125,109,135,70,2,12,3,4.66153752833333,61.4599171583333,3482.306672
24,5,11,AsyncTheta,157,1225_4Hz.avi,willow14_oneeighty_4Hz.wav,willow,2,5.86458780000021,0,24,22,178,157,55,3,7,3,4.66153752833333,61.4599171583333,3494.3813412
24,6,11,SyncTheta,3,1156_4Hz.avi,guitar31_zero_4Hz.wav,guitar,1,4.98796670000002,1,24,3,161,179,93,1,14,2,4.66153752833333,61.4599171583333,3502.3561908
24,7,11,SyncTheta,70,1093_4Hz.avi,synth6_zero_4Hz.wav,synth,3,5.81649049999987,1,24,109,125,70,135,3,2,1,4.66153752833333,61.4599171583333,3510.4644806
24,8,11,AsyncTheta,135,1154_4Hz.avi,synth38_oneeighty_4Hz.wav,synth,1,3.63712959999975,0,24,70,125,135,109,3,8,2,4.66153752833333,61.4599171583333,3519.3223754
24,9,11,AsyncTheta,179,1186_4Hz.avi,guitar30_oneeighty_4Hz.wav,guitar,3,5.8081087999999,0,24,179,3,93,161,1,1,1,4.66153752833333,61.4599171583333,3525.0721695
24,10,11,AsyncTheta,178,1057_4Hz.avi,willow9_oneeighty_4Hz.wav,willow,3,5.21590619999961,0,24,157,178,22,55,2,13,3,4.66153752833333,61.4599171583333,3534.2221548
24,11,11,SyncTheta,22,1212_4Hz.avi,willow20_zero_4Hz.wav,willow,2,5.06069040000011,0,24,22,55,157,178,1,4,2,4.66153752833333,61.4599171583333,3542.771987
24,12,11,SyncTheta,55,1044_4Hz.avi,willow4_zero_4Hz.wav,willow,3,5.39590129999988,0,24,55,178,157,22,1,16,3,4.66153752833333,61.4599171583333,3551.4384488
24,13,11,SyncTheta,65,1013_4Hz.avi,ep22_zero_4Hz.wav,ep,3,4.33254829999987,1,24,180,117,65,25,3,15,4,4.66153752833333,61.4599171583333,3559.1047491
24,14,11,SyncTheta,25,1094_4Hz.avi,ep15_zero_4Hz.wav,ep,4,3.67736569999988,0,24,25,117,65,180,1,6,3,4.66153752833333,61.4599171583333,3566.7128498
24,15,11,AsyncTheta,180,1006_4Hz.avi,ep4_oneeighty_4Hz.wav,ep,1,3.7305895999998,0,24,117,25,180,65,3,5,4,4.66153752833333,61.4599171583333,3572.1296126
24,16,11,AsyncTheta,125,1050_4Hz.avi,synth36_oneeighty_4Hz.wav,synth,2,7.48621180000009,1,24,109,125,135,70,2,9,2,4.66153752833333,61.4599171583333,3578.2877733
24,1,12,NoFlickerFull,113,1037_half_amp.avi,acoustic23_half_amp.wav,acoustic,3,7.42546189999985,1,24,39,169,113,60,3,12,4,4.07561612833333,61.4599171583333,3720.9091985
24,2,12,NoFlickerHalf,72,1097_half_length.avi,choir29_half_length.wav,choir,4,5.70376840000017,0,24,72,124,13,160,1,11,5,4.07561612833333,61.4599171583333,3730.3753033
24,3,12,NoFlickerFull,160,1421_half_amp.avi,choir13_half_amp.wav,choir,1,3.55547210000032,0,24,72,124,160,13,3,14,4,4.07561612833333,61.4599171583333,3738.7337992
24,4,12,NoFlickerHalf,2,1431_half_length.avi,dar24_half_length.wav,dar,2,6.21531820000018,0,24,2,136,80,154,1,8,2,4.07561612833333,61.4599171583333,3744.2503004
24,5,12,NoFlickerFull,143,1127_half_amp.avi,orch11_half_amp.wav,orch,2,2.61903520000033,0,24,81,85,143,192,3,3,4,4.07561612833333,61.4599171583333,3753.4749653
24,6,12,NoFlickerHalf,13,1201_half_length.avi,choir7_half_length.wav,choir,4,2.74954830000024,1,24,160,72,124,13,4,16,1,4.07561612833333,61.4599171583333,3758.2662594
24,7,12,NoFlickerFull,136,1175_half_amp.avi,dar4_half_amp.wav,dar,4,3.51262610000003,0,24,2,154,136,80,3,4,3,4.07561612833333,61.4599171583333,3763.4831145
24,8,12,NoFlickerFull,154,1074_half_amp.avi,dar5_half_amp.wav,dar,2,4.54300950000015,0,24,136,2,80,154,4,5,2,4.07561612833333,61.4599171583333,3768.9827885
24,9,12,NoFlickerFull,124,1183_half_amp.avi,choir24_half_amp.wav,choir,4,3.59118609999996,1,24,160,13,72,124,4,9,2,4.07561612833333,61.4599171583333,3776.8911322
24,10,12,NoFlickerHalf,85,1383_half_length.avi,orch23_half_length.wav,orch,1,3.89929340000026,0,24,143,81,192,85,4,10,3,4.07561612833333,61.4599171583333,3783.1741079
24,11,12,NoFlickerFull,192,1231_half_amp.avi,orch32_half_amp.wav,orch,2,5.2407975000001,0,24,85,81,143,192,4,2,4,4.07561612833333,61.4599171583333,3789.5406128
24,12,12,NoFlickerHalf,81,1444_half_length.avi,orch4_half_length.wav,orch,1,5.0414851999999,1,24,81,192,143,85,1,15,3,4.07561612833333,61.4599171583333,3798.1737306
24,13,12,NoFlickerFull,169,1083_half_amp.avi,acoustic43_half_amp.wav,acoustic,4,5.62719000000016,0,24,60,169,113,39,2,13,4,4.07561612833333,61.4599171583333,3805.8987308
24,14,12,NoFlickerHalf,39,1061_half_length.avi,acoustic11_half_length.wav,acoustic,1,2.96960459999991,0,24,169,113,60,39,4,7,2,4.07561612833333,61.4599171583333,3813.5316606
24,15,12,NoFlickerHalf,60,1249_half_length.avi,acoustic20_half_length.wav,acoustic,2,3.32130419999976,1,24,169,60,113,39,2,1,2,4.07561612833333,61.4599171583333,3819.0566186
24,16,12,NoFlickerHalf,80,1082_half_length.avi,dar15_half_length.wav,dar,4,4.71948870000006,0,24,80,2,136,154,1,6,2,4.07561612833333,61.4599171583333,3825.8399058
