ParticipantID,TrialNumber,BlockNumber,Condition,ClipID,VideoFile,SoundFile,SoundCategory,Response,RT,Accuracy,ConditionID,Frame1,Frame2,Frame3,Frame4,CorrectKey,EncodingPosition,Rating,BlockDuration,ExperimentDuration,MemoryTestOnset
2,1,1,AsyncTheta,171,1280_4Hz.avi,willow19_oneeighty_4Hz.wav,willow,2,3.90007439999999,1,2,37,171,152,32,2,2,4,7.82963047333333,53.6512775933333,1313.9154835
2,2,1,AsyncTheta,150,1394_4Hz.avi,ep11_oneeighty_4Hz.wav,ep,1,3.65215839999996,1,2,150,176,87,41,1,13,4,7.82963047333333,53.6512775933333,1321.3991017
2,3,1,SyncTheta,67,1310_4Hz.avi,guitar21_zero_4Hz.wav,guitar,3,5.26596599999993,0,2,67,185,59,112,1,8,4,7.82963047333333,53.6512775933333,1327.5990941
2,4,1,SyncTheta,8,1252_4Hz.avi,synth25_zero_4Hz.wav,synth,2,2.87686749999989,1,2,127,8,71,155,2,1,3,7.82963047333333,53.6512775933333,1334.6408285
2,5,1,AsyncTheta,127,1411_4Hz.avi,synth28_oneeighty_4Hz.wav,synth,1,1.03168800000003,1,2,127,8,71,155,1,16,1,7.82963047333333,53.6512775933333,1339.7408494
2,6,1,AsyncTheta,112,1388_4Hz.avi,guitar39_oneeighty_4Hz.wav,guitar,2,2.78235429999995,0,2,59,67,112,185,3,3,1,7.82963047333333,53.6512775933333,1342.9160797
2,7,1,SyncTheta,37,1237_4Hz.avi,willow15_zero_4Hz.wav,willow,4,1.70405479999999,1,2,32,171,152,37,4,14,4,7.82963047333333,53.6512775933333,1348.8744708
2,8,1,SyncTheta,71,1076_4Hz.avi,synth21_zero_4Hz.wav,synth,1,1.38416919999986,0,2,127,71,8,155,2,6,1,7.82963047333333,53.6512775933333,1352.5911117
2,9,1,SyncTheta,32,1360_4Hz.avi,willow10_zero_4Hz.wav,willow,2,3.36690350000003,1,2,37,32,171,152,2,12,1,7.82963047333333,53.6512775933333,1355.6246029
2,10,1,AsyncTheta,155,1042_4Hz.avi,synth10_oneeighty_4Hz.wav,synth,4,2.55621550000001,1,2,71,127,8,155,4,11,3,7.82963047333333,53.6512775933333,1362.5913621
2,11,1,SyncTheta,41,1132_4Hz.avi,ep10_zero_4Hz.wav,ep,3,1.73184340000012,0,2,41,176,87,150,1,7,3,7.82963047333333,53.6512775933333,1368.5831985
2,12,1,SyncTheta,87,1142_4Hz.avi,ep3_zero_4Hz.wav,ep,4,2.90423310000006,0,2,176,41,87,150,3,4,3,7.82963047333333,53.6512775933333,1372.8913644
2,13,1,AsyncTheta,185,1131_4Hz.avi,guitar45_oneeighty_4Hz.wav,guitar,2,1.36641759999998,1,2,67,185,112,59,2,9,2,7.82963047333333,53.6512775933333,1379.2165991
2,14,1,SyncTheta,59,1346_4Hz.avi,guitar33_zero_4Hz.wav,guitar,3,5.9013338000002,1,2,67,112,59,185,3,15,1,7.82963047333333,53.6512775933333,1383.5666668
2,15,1,AsyncTheta,176,1405_4Hz.avi,ep46_oneeighty_4Hz.wav,ep,3,2.80696049999983,1,2,41,87,176,150,3,10,2,7.82963047333333,53.6512775933333,1393.0833603
2,16,1,AsyncTheta,152,1445_4Hz.avi,willow2_oneeighty_4Hz.wav,willow,1,3.08526669999992,1,2,152,32,171,37,1,5,2,7.82963047333333,53.6512775933333,1399.1250789
2,1,2,NoFlickerHalf,102,1012_half_length.avi,orch18_half_length.wav,orch,2,6.37096479999991,1,2,28,102,158,188,2,5,3,4.28645536166667,53.6512775933333,1573.4611244
2,2,2,NoFlickerHalf,20,1236_half_length.avi,acoustic25_half_length.wav,acoustic,1,4.12115360000007,1,2,20,5,79,105,1,16,4,4.28645536166667,53.6512775933333,1582.7945831
2,3,2,NoFlickerFull,97,1368_half_amp.avi,choir30_half_amp.wav,choir,4,1.67938679999997,1,2,121,52,63,97,4,2,5,4.28645536166667,53.6512775933333,1589.6779889
2,4,2,NoFlickerHalf,64,1098_half_length.avi,dar11_half_length.wav,dar,3,1.76110040000003,1,2,40,114,64,147,3,3,3,4.28645536166667,53.6512775933333,1594.7031017
2,5,2,NoFlickerFull,114,1322_half_amp.avi,dar14_half_amp.wav,dar,2,3.19331379999994,0,2,64,147,114,40,3,15,5,4.28645536166667,53.6512775933333,1598.1946897
2,6,2,NoFlickerFull,121,1354_half_amp.avi,choir22_half_amp.wav,choir,3,2.21403129999999,1,2,97,63,121,52,3,1,3,4.28645536166667,53.6512775933333,1603.8614884
2,7,2,NoFlickerFull,158,1206_half_amp.avi,orch6_half_amp.wav,orch,2,2.90338659999998,1,2,28,158,188,102,2,12,2,4.28645536166667,53.6512775933333,1608.6614831
2,8,2,NoFlickerHalf,40,1239_half_length.avi,dar6_half_length.wav,dar,4,3.2619823,1,2,147,64,114,40,4,8,4,4.28645536166667,53.6512775933333,1614.7866114
2,9,2,NoFlickerFull,188,1036_half_amp.avi,orch26_half_amp.wav,orch,2,2.73502860000008,1,2,102,188,158,28,2,11,3,4.28645536166667,53.6512775933333,1621.4619673
2,10,2,NoFlickerFull,147,1304_half_amp.avi,dar10_half_amp.wav,dar,2,3.23142580000012,1,2,64,147,40,114,2,14,1,4.28645536166667,53.6512775933333,1626.0034188
2,11,2,NoFlickerFull,105,1003_half_amp.avi,acoustic6_half_amp.wav,acoustic,2,2.88078279999991,0,2,79,5,105,20,3,10,4,4.28645536166667,53.6512775933333,1631.6701654
2,12,2,NoFlickerHalf,5,1381_half_length.avi,acoustic1_half_length.wav,acoustic,2,3.11905389999993,0,2,20,105,5,79,3,4,2,4.28645536166667,53.6512775933333,1636.1868482
2,13,2,NoFlickerHalf,63,1128_half_length.avi,choir26_half_length.wav,choir,4,1.55752989999996,1,2,97,52,121,63,4,6,5,4.28645536166667,53.6512775933333,1642.4620943
2,14,2,NoFlickerHalf,52,1387_half_length.avi,choir2_half_length.wav,choir,2,2.63158499999986,1,2,121,52,97,63,2,9,2,4.28645536166667,53.6512775933333,1646.3371686
2,15,2,NoFlickerFull,79,1071_half_amp.avi,acoustic17_half_amp.wav,acoustic,1,2.37946110000007,0,2,105,5,20,79,4,13,4,4.28645536166667,53.6512775933333,1652.2537777
2,16,2,NoFlickerHalf,28,1148_half_length.avi,orch19_half_length.wav,orch,1,2.58617089999984,1,2,28,102,188,158,1,7,1,4.28645536166667,53.6512775933333,1657.0123218
2,1,3,NoFlickerHalf,42,1339_half_length.avi,orch31_half_length.wav,orch,2,3.8567438,1,2,57,42,134,137,2,3,1,4.06622146666667,53.6512775933333,1807.3309416
2,2,3,NoFlickerFull,104,1111_half_amp.avi,acoustic31_half_amp.wav,acoustic,4,5.8791877000001,1,2,83,1,58,104,4,16,5,4.06622146666667,53.6512775933333,1812.8142727
2,3,3,NoFlickerFull,76,1293_half_amp.avi,choir23_half_amp.wav,choir,3,2.02423640000006,1,2,10,88,76,11,3,8,4,4.06622146666667,53.6512775933333,1821.6976984
2,4,3,NoFlickerHalf,29,1158_half_length.avi,dar23_half_length.wav,dar,3,4.17562840000005,1,2,82,162,29,49,3,4,3,4.06622146666667,53.6512775933333,1825.9561096
2,5,3,NoFlickerFull,162,1358_half_amp.avi,dar7_half_amp.wav,dar,4,2.00010090000001,0,2,82,162,29,49,2,14,2,4.06622146666667,53.6512775933333,1832.1229074
2,6,3,NoFlickerFull,88,1191_half_amp.avi,choir20_half_amp.wav,choir,2,3.36183499999993,1,2,76,88,10,11,2,7,4,4.06622146666667,53.6512775933333,1835.931354
2,7,3,NoFlickerFull,137,1303_half_amp.avi,orch10_half_amp.wav,orch,4,5.34512380000001,0,2,137,42,134,57,1,15,1,4.06622146666667,53.6512775933333,1841.7562397
2,8,3,NoFlickerHalf,49,1221_half_length.avi,dar21_half_length.wav,dar,3,2.12934259999997,0,2,82,29,162,49,4,6,1,4.06622146666667,53.6512775933333,1848.8064605
2,9,3,NoFlickerFull,134,1026_half_amp.avi,orch16_half_amp.wav,orch,1,2.6427228,1,2,134,57,137,42,1,13,2,4.06622146666667,53.6512775933333,1854.4230904
2,10,3,NoFlickerFull,82,1449_half_amp.avi,dar17_half_amp.wav,dar,3,2.41108080000004,1,2,29,162,82,49,3,10,4,4.06622146666667,53.6512775933333,1860.4733088
2,11,3,NoFlickerHalf,1,1064_half_length.avi,acoustic12_half_length.wav,acoustic,2,4.04708340000002,0,2,1,58,83,104,1,2,4,4.06622146666667,53.6512775933333,1866.0150328
2,12,3,NoFlickerFull,83,1139_half_amp.avi,acoustic27_half_amp.wav,acoustic,2,3.29729199999997,0,2,1,104,83,58,3,1,5,4.06622146666667,53.6512775933333,1873.1401034
2,13,3,NoFlickerHalf,10,1179_half_length.avi,choir4_half_length.wav,choir,1,3.56112940000003,1,2,10,76,88,11,1,9,3,4.06622146666667,53.6512775933333,1879.6652508
2,14,3,NoFlickerHalf,11,1448_half_length.avi,choir36_half_length.wav,choir,4,3.53460109999992,1,2,76,88,10,11,4,11,3,4.06622146666667,53.6512775933333,1884.8234298
2,15,3,NoFlickerHalf,58,1323_half_length.avi,acoustic29_half_length.wav,acoustic,2,5.7803335000001,0,2,1,83,58,104,3,12,5,4.06622146666667,53.6512775933333,1890.6569951
2,16,3,NoFlickerHalf,57,1309_half_length.avi,orch7_half_length.wav,orch,3,4.07323900000006,1,2,137,134,57,42,3,5,5,4.06622146666667,53.6512775933333,1899.69877
2,1,4,SyncTheta,66,1215_4Hz.avi,willow18_zero_4Hz.wav,willow,2,4.5165363000001,1,2,167,66,118,27,2,2,3,4.28043303,53.6512775933333,2068.1341746
2,2,4,AsyncTheta,177,1283_4Hz.avi,ep38_oneeighty_4Hz.wav,ep,2,2.72084510000013,1,2,16,177,24,144,2,13,4,4.28043303,53.6512775933333,2074.2674714
2,3,4,AsyncTheta,183,1374_4Hz.avi,guitar16_oneeighty_4Hz.wav,guitar,3,4.31160279999995,1,2,77,46,183,151,3,6,2,4.28043303,53.6512775933333,2080.1425214
2,4,4,AsyncTheta,184,1052_4Hz.avi,synth40_oneeighty_4Hz.wav,synth,1,5.06171360000008,1,2,184,129,95,100,1,7,3,4.28043303,53.6512775933333,2087.4259432
2,5,4,SyncTheta,95,1359_4Hz.avi,synth33_zero_4Hz.wav,synth,3,3.7811415000001,1,2,129,184,95,100,3,15,1,4.28043303,53.6512775933333,2094.2009086
2,6,4,SyncTheta,77,1008_4Hz.avi,guitar42_zero_4Hz.wav,guitar,3,4.30028479999964,0,2,151,46,183,77,4,3,4,4.28043303,53.6512775933333,2101.0254696
2,7,4,AsyncTheta,167,1177_4Hz.avi,willow24_oneeighty_4Hz.wav,willow,2,4.10257769999998,1,2,118,167,66,27,2,16,2,4.28043303,53.6512775933333,2108.100235
2,8,4,AsyncTheta,129,1286_4Hz.avi,synth30_oneeighty_4Hz.wav,synth,1,1.57076129999996,1,2,129,95,184,100,1,9,5,4.28043303,53.6512775933333,2115.7250264
2,9,4,SyncTheta,27,1202_4Hz.avi,willow16_zero_4Hz.wav,willow,2,1.60283070000014,1,2,167,27,118,66,2,8,1,4.28043303,53.6512775933333,2120.7999922
2,10,4,SyncTheta,100,1107_4Hz.avi,synth23_zero_4Hz.wav,synth,3,1.71308429999999,1,2,129,184,100,95,3,14,1,4.28043303,53.6512775933333,2125.4997263
2,11,4,AsyncTheta,144,1255_4Hz.avi,ep28_oneeighty_4Hz.wav,ep,4,1.81586169999991,1,2,16,177,24,144,4,5,1,4.28043303,53.6512775933333,2130.3997147
2,12,4,SyncTheta,16,1442_4Hz.avi,ep34_zero_4Hz.wav,ep,2,3.30467070000032,1,2,144,16,177,24,2,1,2,4.28043303,53.6512775933333,2135.8244621
2,13,4,SyncTheta,46,1210_4Hz.avi,guitar48_zero_4Hz.wav,guitar,1,2.62477269999999,1,2,46,183,151,77,1,11,3,4.28043303,53.6512775933333,2141.3075683
2,14,4,AsyncTheta,151,1259_4Hz.avi,guitar43_oneeighty_4Hz.wav,guitar,1,2.63544490000004,1,2,151,46,183,77,1,12,2,4.28043303,53.6512775933333,2147.2908206
2,15,4,SyncTheta,24,1217_4Hz.avi,ep44_zero_4Hz.wav,ep,2,1.62888479999992,1,2,177,24,16,144,2,10,4,4.28043303,53.6512775933333,2153.4073115
2,16,4,AsyncTheta,118,1020_4Hz.avi,willow22_oneeighty_4Hz.wav,willow,1,3.27889319999986,1,2,118,27,66,167,1,4,1,4.28043303,53.6512775933333,2157.5239415
2,1,5,AsyncTheta,120,1365_4Hz.avi,willow21_oneeighty_4Hz.wav,willow,1,3.7906809000001,1,2,120,48,108,130,1,1,3,4.60546557,53.6512775933333,2333.1190027
2,2,5,AsyncTheta,173,1348_4Hz.avi,ep31_oneeighty_4Hz.wav,ep,2,6.01290710000012,0,2,173,26,99,138,1,16,4,4.60546557,53.6512775933333,2340.5186492
2,3,5,SyncTheta,73,1369_4Hz.avi,guitar19_zero_4Hz.wav,guitar,3,4.88075219999973,0,2,7,73,172,168,2,7,3,4.60546557,53.6512775933333,2348.9269076
2,4,5,SyncTheta,89,1393_4Hz.avi,synth41_zero_4Hz.wav,synth,2,3.77061589999994,1,2,163,89,50,140,2,5,1,4.60546557,53.6512775933333,2357.4099182
2,5,5,AsyncTheta,163,1441_4Hz.avi,synth27_oneeighty_4Hz.wav,synth,3,1.92549980000013,1,2,89,140,163,50,3,13,1,4.60546557,53.6512775933333,2364.1264744
2,6,5,AsyncTheta,168,1204_4Hz.avi,guitar36_oneeighty_4Hz.wav,guitar,4,2.60615150000012,1,2,172,7,73,168,4,6,4,4.60546557,53.6512775933333,2369.5511729
2,7,5,AsyncTheta,130,1081_4Hz.avi,willow5_oneeighty_4Hz.wav,willow,4,3.32950310000024,1,2,108,48,120,130,4,4,3,4.60546557,53.6512775933333,2373.834677
2,8,5,SyncTheta,50,1049_4Hz.avi,synth43_zero_4Hz.wav,synth,2,4.15226670000038,0,2,163,140,89,50,4,9,1,4.60546557,53.6512775933333,2379.7176861
2,9,5,SyncTheta,48,1021_4Hz.avi,willow12_zero_4Hz.wav,willow,1,4.62606289999985,0,2,130,108,48,120,3,3,1,4.60546557,53.6512775933333,2387.4589928
2,10,5,AsyncTheta,140,1270_4Hz.avi,synth17_oneeighty_4Hz.wav,synth,3,3.94978889999993,1,2,50,89,140,163,3,10,5,4.60546557,53.6512775933333,2395.5755921
2,11,5,AsyncTheta,138,1149_4Hz.avi,ep2_oneeighty_4Hz.wav,ep,1,1.53213830000004,1,2,138,26,99,173,1,12,5,4.60546557,53.6512775933333,2402.3837234
2,12,5,SyncTheta,99,1173_4Hz.avi,ep6_zero_4Hz.wav,ep,1,5.04913729999998,0,2,26,99,138,173,2,8,3,4.60546557,53.6512775933333,2406.0584516
2,13,5,AsyncTheta,172,1350_4Hz.avi,guitar10_oneeighty_4Hz.wav,guitar,2,4.42177619999984,0,2,168,7,172,73,3,11,2,4.60546557,53.6512775933333,2413.9832651
2,14,5,SyncTheta,7,1017_4Hz.avi,guitar47_zero_4Hz.wav,guitar,3,4.71804509999993,0,2,73,7,172,168,2,15,2,4.60546557,53.6512775933333,2420.5082427
2,15,5,SyncTheta,26,1190_4Hz.avi,ep7_zero_4Hz.wav,ep,3,2.88752850000037,0,2,173,26,99,138,2,14,2,4.60546557,53.6512775933333,2427.9579876
2,16,5,SyncTheta,108,1415_4Hz.avi,willow3_zero_4Hz.wav,willow,4,2.97667309999997,1,2,130,48,120,108,4,2,1,4.60546557,53.6512775933333,2434.3744689
2,1,6,NoFlickerFull,141,1401_half_amp.avi,orch12_half_amp.wav,orch,1,1.78661639999973,0,2,142,141,36,30,2,4,4,4.01162589333333,53.6512775933333,2590.4617806
2,2,6,NoFlickerFull,148,1121_half_amp.avi,acoustic26_half_amp.wav,acoustic,1,2.12850939999998,1,2,148,21,190,44,1,10,4,4.01162589333333,53.6512775933333,2594.3866434
2,3,6,NoFlickerFull,78,1301_half_amp.avi,choir11_half_amp.wav,choir,3,5.95430339999984,1,2,68,69,78,159,3,8,4,4.01162589333333,53.6512775933333,2598.7280996
2,4,6,NoFlickerFull,191,1314_half_amp.avi,dar19_half_amp.wav,dar,1,2.20483710000008,1,2,191,122,34,14,1,1,4,4.01162589333333,53.6512775933333,2607.2778799
2,5,6,NoFlickerHalf,34,1319_half_length.avi,dar22_half_length.wav,dar,1,4.29803899999979,1,2,34,14,122,191,1,16,3,4.01162589333333,53.6512775933333,2612.2612883
2,6,6,NoFlickerHalf,68,1023_half_length.avi,choir3_half_length.wav,choir,2,2.96122239999977,1,2,69,68,159,78,2,6,2,4.01162589333333,53.6512775933333,2618.8442662
2,7,6,NoFlickerHalf,36,1284_half_length.avi,orch29_half_length.wav,orch,3,2.99684569999999,1,2,142,141,36,30,3,15,2,4.01162589333333,53.6512775933333,2624.752483
2,8,6,NoFlickerHalf,14,1416_half_length.avi,dar1_half_length.wav,dar,4,2.32742929999995,1,2,191,34,122,14,4,7,1,4.01162589333333,53.6512775933333,2630.8188251
2,9,6,NoFlickerHalf,30,1016_half_length.avi,orch14_half_length.wav,orch,3,1.64677019999999,1,2,142,36,30,141,3,13,1,4.01162589333333,53.6512775933333,2634.835493
2,10,6,NoFlickerFull,122,1289_half_amp.avi,dar3_half_amp.wav,dar,1,2.9343928000003,1,2,122,34,14,191,1,9,3,4.01162589333333,53.6512775933333,2639.185415
2,11,6,NoFlickerHalf,21,1112_half_length.avi,acoustic32_half_length.wav,acoustic,4,2.63169530000005,1,2,44,148,190,21,4,3,3,4.01162589333333,53.6512775933333,2644.4602385
2,12,6,NoFlickerHalf,44,1254_half_length.avi,acoustic48_half_length.wav,acoustic,3,5.0103237000003,1,2,21,190,44,148,3,2,2,4.01162589333333,53.6512775933333,2648.8516523
2,13,6,NoFlickerHalf,69,1216_half_length.avi,choir32_half_length.wav,choir,3,3.55879499999992,1,2,159,68,69,78,3,11,2,4.01162589333333,53.6512775933333,2657.2513958
2,14,6,NoFlickerFull,159,1091_half_amp.avi,choir8_half_amp.wav,choir,4,1.92790729999979,1,2,68,69,78,159,4,14,1,4.01162589333333,53.6512775933333,2663.9513538
2,15,6,NoFlickerFull,190,1427_half_amp.avi,acoustic46_half_amp.wav,acoustic,1,3.28909079999994,1,2,190,21,148,44,1,5,2,4.01162589333333,53.6512775933333,2669.4262225
2,16,6,NoFlickerFull,142,1155_half_amp.avi,orch9_half_amp.wav,orch,1,2.65710880000006,0,2,141,36,142,30,3,12,4,4.01162589333333,53.6512775933333,2675.6176053
2,1,7,NoFlickerFull,165,1410_half_amp.avi,orch43_half_amp.wav,orch,3,2.34730399999989,1,2,145,33,165,17,3,4,3,3.82329769333333,53.6512775933333,2827.9300994
2,2,7,NoFlickerHalf,47,1292_half_length.avi,acoustic28_half_length.wav,acoustic,4,2.41839280000022,0,2,23,47,175,133,2,14,1,3.82329769333333,53.6512775933333,2832.6631828
2,3,7,NoFlickerHalf,19,1247_half_length.avi,choir38_half_length.wav,choir,2,2.2923337999996,1,2,139,19,38,181,2,10,4,3.82329769333333,53.6512775933333,2836.696655
2,4,7,NoFlickerFull,187,1164_half_amp.avi,dar12_half_amp.wav,dar,4,4.25364500000023,0,2,103,187,31,56,2,2,2,3.82329769333333,53.6512775933333,2840.8132272
2,5,7,NoFlickerHalf,56,1063_half_length.avi,dar16_half_length.wav,dar,3,2.25880159999997,1,2,103,31,56,187,3,15,1,3.82329769333333,53.6512775933333,2847.2545591
2,6,7,NoFlickerFull,181,1168_half_amp.avi,choir1_half_amp.wav,choir,1,1.84268250000014,1,2,181,19,38,139,1,7,5,3.82329769333333,53.6512775933333,2852.9627315
2,7,7,NoFlickerHalf,33,1136_half_length.avi,orch38_half_length.wav,orch,2,2.7068718999999,0,2,33,17,145,165,1,9,1,3.82329769333333,53.6512775933333,2856.4792988
2,8,7,NoFlickerFull,103,1084_half_amp.avi,dar20_half_amp.wav,dar,2,2.51378680000016,1,2,187,103,56,31,2,6,4,3.82329769333333,53.6512775933333,2861.2041689
2,9,7,NoFlickerFull,145,1352_half_amp.avi,orch39_half_amp.wav,orch,1,3.21810249999999,0,2,33,165,145,17,3,8,1,3.82329769333333,53.6512775933333,2866.5790254
2,10,7,NoFlickerHalf,31,1404_half_length.avi,dar8_half_length.wav,dar,1,1.19746180000038,1,2,31,103,56,187,1,11,2,3.82329769333333,53.6512775933333,2872.0288327
2,11,7,NoFlickerHalf,23,1330_half_length.avi,acoustic47_half_length.wav,acoustic,2,1.54171690000021,1,2,175,23,133,47,2,3,4,3.82329769333333,53.6512775933333,2876.6452777
2,12,7,NoFlickerFull,133,1341_half_amp.avi,acoustic14_half_amp.wav,acoustic,4,3.24876059999997,1,2,23,175,47,133,4,1,5,3.82329769333333,53.6512775933333,2881.7452292
2,13,7,NoFlickerHalf,38,1184_half_length.avi,choir33_half_length.wav,choir,3,1.92883999999958,1,2,19,139,38,181,3,12,1,3.82329769333333,53.6512775933333,2887.4533322
2,14,7,NoFlickerFull,139,1192_half_amp.avi,choir5_half_amp.wav,choir,2,2.16318469999987,1,2,19,139,38,181,2,16,2,3.82329769333333,53.6512775933333,2892.3450944
2,15,7,NoFlickerFull,175,1103_half_amp.avi,acoustic10_half_amp.wav,acoustic,3,3.73966090000022,0,2,47,23,133,175,4,13,3,3.82329769333333,53.6512775933333,2897.3948238
2,16,7,NoFlickerHalf,17,1162_half_length.avi,orch1_half_length.wav,orch,2,3.88192379999964,1,2,165,17,33,145,2,5,2,3.82329769333333,53.6512775933333,2904.0196282
2,1,8,SyncTheta,18,1101_4Hz.avi,willow13_zero_4Hz.wav,willow,3,5.82368880000013,1,2,119,149,18,94,3,3,2,4.43833881,53.6512775933333,3074.9314903
2,2,8,AsyncTheta,166,1227_4Hz.avi,ep5_oneeighty_4Hz.wav,ep,4,5.92253519999986,1,2,101,86,132,166,4,12,3,4.43833881,53.6512775933333,3082.7229333
2,3,8,SyncTheta,84,1294_4Hz.avi,guitar6_zero_4Hz.wav,guitar,4,7.80031809999991,1,2,90,164,146,84,4,7,1,4.43833881,53.6512775933333,3091.9225467
2,4,8,SyncTheta,51,1331_4Hz.avi,synth47_zero_4Hz.wav,synth,4,1.4582376999997,1,2,131,111,35,51,4,2,1,4.43833881,53.6512775933333,3102.9475262
2,5,8,SyncTheta,35,1039_4Hz.avi,synth5_zero_4Hz.wav,synth,2,1.94235089999984,1,2,51,35,131,111,2,15,3,4.43833881,53.6512775933333,3106.4720997
2,6,8,AsyncTheta,164,1087_4Hz.avi,guitar17_oneeighty_4Hz.wav,guitar,3,2.22864100000015,1,2,90,84,164,146,3,5,2,4.43833881,53.6512775933333,3110.313713
2,7,8,AsyncTheta,149,1200_4Hz.avi,willow8_oneeighty_4Hz.wav,willow,2,3.0294057000001,0,2,94,119,149,18,3,14,2,4.43833881,53.6512775933333,3115.088632
2,8,8,AsyncTheta,111,1390_4Hz.avi,synth3_oneeighty_4Hz.wav,synth,3,1.62107420000029,1,2,51,35,111,131,3,4,5,4.43833881,53.6512775933333,3120.5218606
2,9,8,AsyncTheta,119,1189_4Hz.avi,willow11_oneeighty_4Hz.wav,willow,3,2.97726439999997,0,2,94,119,149,18,2,11,2,4.43833881,53.6512775933333,3124.805015
2,10,8,AsyncTheta,131,1366_4Hz.avi,synth34_oneeighty_4Hz.wav,synth,3,4.49565070000017,1,2,51,111,131,35,3,9,2,4.43833881,53.6512775933333,3131.1215647
2,11,8,SyncTheta,86,1278_4Hz.avi,ep35_zero_4Hz.wav,ep,4,3.89772919999996,0,2,86,132,166,101,1,6,2,4.43833881,53.6512775933333,3139.0464912
2,12,8,AsyncTheta,132,1356_4Hz.avi,ep30_oneeighty_4Hz.wav,ep,3,3.82247639999969,1,2,86,101,132,166,3,1,5,4.43833881,53.6512775933333,3145.5793883
2,13,8,SyncTheta,90,1273_4Hz.avi,guitar23_zero_4Hz.wav,guitar,1,3.33417580000014,0,2,146,84,164,90,4,13,4,4.43833881,53.6512775933333,3152.2376526
2,14,8,AsyncTheta,146,1005_4Hz.avi,guitar14_oneeighty_4Hz.wav,guitar,2,3.19993700000032,1,2,84,146,164,90,2,16,2,4.43833881,53.6512775933333,3157.2290193
2,15,8,SyncTheta,101,1295_4Hz.avi,ep40_zero_4Hz.wav,ep,2,5.54993449999984,1,2,86,101,166,132,2,10,3,4.43833881,53.6512775933333,3163.3123681
2,16,8,SyncTheta,94,1109_4Hz.avi,willow6_zero_4Hz.wav,willow,1,3.55657350000001,0,2,149,94,119,18,2,8,4,4.43833881,53.6512775933333,3170.8536762
2,1,9,SyncTheta,75,1040_4Hz.avi,willow17_zero_4Hz.wav,willow,2,5.17062149999992,0,2,153,156,92,75,4,3,1,4.16419288166667,53.6512775933333,3337.8241021
2,2,9,SyncTheta,106,1113_4Hz.avi,ep29_zero_4Hz.wav,ep,3,3.80377439999984,0,2,189,123,6,106,4,15,4,4.16419288166667,53.6512775933333,3346.3820833
2,3,9,AsyncTheta,115,1370_4Hz.avi,guitar9_oneeighty_4Hz.wav,guitar,4,2.40876900000012,1,2,53,15,170,115,4,8,2,4.16419288166667,53.6512775933333,3352.0987381
2,4,9,AsyncTheta,128,1269_4Hz.avi,synth14_oneeighty_4Hz.wav,synth,3,2.22277819999999,1,2,54,186,128,61,3,7,5,4.16419288166667,53.6512775933333,3356.1402775
2,5,9,SyncTheta,54,1181_4Hz.avi,synth12_zero_4Hz.wav,synth,1,2.62939610000012,1,2,54,61,128,186,1,12,2,4.16419288166667,53.6512775933333,3360.8234969
2,6,9,SyncTheta,53,1197_4Hz.avi,guitar46_zero_4Hz.wav,guitar,4,2.25711520000004,1,2,15,115,170,53,4,2,5,4.16419288166667,53.6512775933333,3365.2651662
2,7,9,AsyncTheta,156,1060_4Hz.avi,willow7_oneeighty_4Hz.wav,willow,1,4.9271748000001,0,2,75,92,156,153,3,14,4,4.16419288166667,53.6512775933333,3369.4231167
2,8,9,SyncTheta,61,1207_4Hz.avi,synth46_zero_4Hz.wav,synth,4,1.95282220000036,1,2,128,186,54,61,4,9,1,4.16419288166667,53.6512775933333,3375.9897238
2,9,9,SyncTheta,92,1030_4Hz.avi,willow23_zero_4Hz.wav,willow,3,3.28007590000016,1,2,156,153,92,75,3,6,2,4.16419288166667,53.6512775933333,3379.9729616
2,10,9,AsyncTheta,186,1031_4Hz.avi,synth7_oneeighty_4Hz.wav,synth,2,2.87462039999991,1,2,61,186,54,128,2,11,3,4.16419288166667,53.6512775933333,3385.8144714
2,11,9,SyncTheta,6,1007_4Hz.avi,ep8_zero_4Hz.wav,ep,1,3.45078000000012,0,2,189,123,6,106,3,4,3,4.16419288166667,53.6512775933333,3391.0558929
2,12,9,AsyncTheta,189,1051_4Hz.avi,ep14_oneeighty_4Hz.wav,ep,3,2.63636469999983,1,2,123,6,189,106,3,1,4,4.16419288166667,53.6512775933333,3397.1891485
2,13,9,AsyncTheta,170,1062_4Hz.avi,guitar3_oneeighty_4Hz.wav,guitar,4,3.52071169999999,1,2,53,115,15,170,4,13,3,4.16419288166667,53.6512775933333,3401.5804986
2,14,9,SyncTheta,15,1422_4Hz.avi,guitar37_zero_4Hz.wav,guitar,2,2.10382359999994,1,2,170,15,115,53,2,16,3,4.16419288166667,53.6512775933333,3407.6056525
2,15,9,AsyncTheta,123,1067_4Hz.avi,ep37_oneeighty_4Hz.wav,ep,2,3.34228500000017,1,2,106,123,189,6,2,10,5,4.16419288166667,53.6512775933333,3412.9136768
2,16,9,AsyncTheta,153,1157_4Hz.avi,willow1_oneeighty_4Hz.wav,willow,4,5.82249150000007,0,2,153,156,75,92,1,5,5,4.16419288166667,53.6512775933333,3418.6800561
2,1,10,NoFlickerHalf,74,1337_half_length.avi,orch24_half_length.wav,orch,1,2.14445860000023,1,2,74,174,110,91,1,5,2,3.91800266833333,53.6512775933333,3572.5841063
2,2,10,NoFlickerHalf,9,1054_half_length.avi,acoustic44_half_length.wav,acoustic,4,4.024899,0,2,9,107,96,4,1,16,5,3.91800266833333,53.6512775933333,3577.7589427
2,3,10,NoFlickerHalf,12,1077_half_length.avi,choir18_half_length.wav,choir,3,4.21759200000042,1,2,182,98,12,62,3,4,2,3.91800266833333,53.6512775933333,3583.4171595
2,4,10,NoFlickerFull,116,1420_half_amp.avi,dar18_half_amp.wav,dar,1,7.08624570000029,1,2,116,126,43,45,1,3,4,3.91800266833333,53.6512775933333,3589.9419645
2,5,10,NoFlickerFull,126,1298_half_amp.avi,dar9_half_amp.wav,dar,1,3.7704076,1,2,126,43,116,45,1,11,2,3.91800266833333,53.6512775933333,3600.0083616
2,6,10,NoFlickerFull,182,1277_half_amp.avi,choir39_half_amp.wav,choir,2,3.43157410000003,0,2,182,98,12,62,1,2,3,3.91800266833333,53.6512775933333,3605.733201
2,7,10,NoFlickerHalf,91,1340_half_length.avi,orch46_half_length.wav,orch,2,3.56710650000014,1,2,74,91,174,110,2,15,1,3.91800266833333,53.6512775933333,3611.0916223
2,8,10,NoFlickerHalf,45,1203_half_length.avi,dar2_half_length.wav,dar,3,2.35826140000017,1,2,43,116,45,126,3,7,4,3.91800266833333,53.6512775933333,3617.0913474
2,9,10,NoFlickerFull,110,1443_half_amp.avi,orch3_half_amp.wav,orch,1,1.79533119999996,1,2,110,74,91,174,1,8,2,3.91800266833333,53.6512775933333,3622.8910377
2,10,10,NoFlickerHalf,43,1141_half_length.avi,dar13_half_length.wav,dar,2,2.81309220000003,1,2,45,43,126,116,2,10,1,3.91800266833333,53.6512775933333,3626.7410721
2,11,10,NoFlickerFull,96,1027_half_amp.avi,acoustic40_half_amp.wav,acoustic,1,4.05925849999994,1,2,96,4,107,9,1,9,5,3.91800266833333,53.6512775933333,3632.5325364
2,12,10,NoFlickerFull,107,1265_half_amp.avi,acoustic16_half_amp.wav,acoustic,3,1.37839399999984,1,2,96,4,107,9,3,1,4,3.91800266833333,53.6512775933333,3639.3655567
2,13,10,NoFlickerFull,98,1014_half_amp.avi,choir41_half_amp.wav,choir,1,1.69347459999972,0,2,182,98,12,62,2,13,1,3.91800266833333,53.6512775933333,3643.2320926
2,14,10,NoFlickerHalf,62,1058_half_length.avi,choir19_half_length.wav,choir,1,2.56754600000022,1,2,62,12,98,182,1,14,3,3.91800266833333,53.6512775933333,3648.148632
2,15,10,NoFlickerHalf,4,1167_half_length.avi,acoustic37_half_length.wav,acoustic,4,2.4240941713997,0,2,96,4,107,9,2,12,3,3.91800266833333,53.6512775933333,3652.6242250286
2,16,10,NoFlickerFull,174,1119_half_amp.avi,orch45_half_amp.wav,orch,3,1.71918189999997,1,2,74,91,174,110,3,6,4,3.91800266833333,53.6512775933333,3658.0983873
2,1,11,NoFlickerHalf,85,1383_half_length.avi,orch23_half_length.wav,orch,4,3.04992700000003,1,2,192,143,81,85,4,1,3,3.81895376333333,53.6512775933333,3804.4692784
2,2,11,NoFlickerFull,113,1037_half_amp.avi,acoustic23_half_amp.wav,acoustic,4,3.31675109999969,1,2,39,169,60,113,4,13,5,3.81895376333333,53.6512775933333,3809.2608294
2,3,11,NoFlickerFull,124,1183_half_amp.avi,choir24_half_amp.wav,choir,4,3.6217931000001,1,2,160,72,13,124,4,11,1,3.81895376333333,53.6512775933333,3814.944164
2,4,11,NoFlickerFull,154,1074_half_amp.avi,dar5_half_amp.wav,dar,2,2.24183159999984,1,2,80,154,136,2,2,3,5,3.81895376333333,53.6512775933333,3820.9607925
2,5,11,NoFlickerHalf,2,1431_half_length.avi,dar24_half_length.wav,dar,3,4.12537199999997,1,2,80,136,2,154,3,12,2,3.81895376333333,53.6512775933333,3825.510361
2,6,11,NoFlickerHalf,13,1201_half_length.avi,choir7_half_length.wav,choir,4,4.30019880000009,0,2,124,13,72,160,2,5,1,3.81895376333333,53.6512775933333,3831.5353676
2,7,11,NoFlickerFull,143,1127_half_amp.avi,orch11_half_amp.wav,orch,2,3.71028519999982,0,2,85,81,143,192,3,16,3,3.81895376333333,53.6512775933333,3837.4351697
2,8,11,NoFlickerHalf,80,1082_half_length.avi,dar15_half_length.wav,dar,1,3.36456920000001,0,2,2,80,136,154,2,6,2,3.81895376333333,53.6512775933333,3843.7600032
2,9,11,NoFlickerFull,192,1231_half_amp.avi,orch32_half_amp.wav,orch,3,2.37315050000007,1,2,81,85,192,143,3,9,4,3.81895376333333,53.6512775933333,3850.2347176
2,10,11,NoFlickerFull,136,1175_half_amp.avi,dar4_half_amp.wav,dar,2,2.52456489999986,1,2,80,136,2,154,2,10,1,3.81895376333333,53.6512775933333,3855.967903
2,11,11,NoFlickerHalf,60,1249_half_length.avi,acoustic20_half_length.wav,acoustic,4,3.92793540000002,1,2,39,113,169,60,4,7,4,3.81895376333333,53.6512775933333,3861.1010998
2,12,11,NoFlickerHalf,39,1061_half_length.avi,acoustic11_half_length.wav,acoustic,1,2.34553380000034,1,2,39,113,169,60,1,4,3,3.81895376333333,53.6512775933333,3868.2509944
2,13,11,NoFlickerHalf,72,1097_half_length.avi,choir29_half_length.wav,choir,2,1.18223209999996,0,2,124,160,72,13,3,14,5,3.81895376333333,53.6512775933333,3872.5257606
2,14,11,NoFlickerFull,160,1421_half_amp.avi,choir13_half_amp.wav,choir,4,3.03597669999999,0,2,160,124,72,13,1,15,4,3.81895376333333,53.6512775933333,3876.1590185
2,15,11,NoFlickerFull,169,1083_half_amp.avi,acoustic43_half_amp.wav,acoustic,2,1.74567219999972,1,2,39,169,60,113,2,8,5,3.81895376333333,53.6512775933333,3882.1339769
2,16,11,NoFlickerHalf,81,1444_half_length.avi,orch4_half_length.wav,orch,3,2.58488149999994,1,2,192,143,81,85,3,2,1,3.81895376333333,53.6512775933333,3886.6253671
2,1,12,SyncTheta,55,1044_4Hz.avi,willow4_zero_4Hz.wav,willow,4,1.75679379999974,1,2,178,22,157,55,4,7,1,3.94690139166667,53.6512775933333,4043.0044833
2,2,12,SyncTheta,65,1013_4Hz.avi,ep22_zero_4Hz.wav,ep,3,2.79091010000002,0,2,65,25,117,180,1,8,4,3.94690139166667,53.6512775933333,4046.9877125
2,3,12,SyncTheta,93,1046_4Hz.avi,guitar18_zero_4Hz.wav,guitar,1,2.27467950000027,1,2,93,161,3,179,1,4,3,3.94690139166667,53.6512775933333,4053.1208454
2,4,12,SyncTheta,70,1093_4Hz.avi,synth6_zero_4Hz.wav,synth,3,2.31947159999982,1,2,135,125,70,109,3,2,3,3.94690139166667,53.6512775933333,4057.1542742
2,5,12,AsyncTheta,125,1050_4Hz.avi,synth36_oneeighty_4Hz.wav,synth,1,3.65417260000004,0,2,135,70,109,125,4,16,4,3.94690139166667,53.6512775933333,4062.2121829
2,6,12,AsyncTheta,161,1433_4Hz.avi,guitar2_oneeighty_4Hz.wav,guitar,3,1.88227330000018,1,2,3,93,161,179,3,3,1,3.94690139166667,53.6512775933333,4067.7953829
2,7,12,AsyncTheta,157,1225_4Hz.avi,willow14_oneeighty_4Hz.wav,willow,2,3.60093710000001,1,2,55,157,178,22,2,12,1,3.94690139166667,53.6512775933333,4073.0118793
2,8,12,AsyncTheta,135,1154_4Hz.avi,synth38_oneeighty_4Hz.wav,synth,4,3.88856960000021,1,2,70,109,125,135,4,13,1,3.94690139166667,53.6512775933333,4078.5201917
2,9,12,SyncTheta,22,1212_4Hz.avi,willow20_zero_4Hz.wav,willow,1,3.2858784,1,2,22,157,55,178,1,11,2,3.94690139166667,53.6512775933333,4084.5949257
2,10,12,SyncTheta,109,1299_4Hz.avi,synth18_zero_4Hz.wav,synth,4,3.01997399999982,1,2,70,125,135,109,4,15,3,3.94690139166667,53.6512775933333,4090.5614037
2,11,12,AsyncTheta,180,1006_4Hz.avi,ep4_oneeighty_4Hz.wav,ep,2,3.49406590000035,0,2,65,25,117,180,4,5,3,3.94690139166667,53.6512775933333,4096.5780415
2,12,12,SyncTheta,25,1094_4Hz.avi,ep15_zero_4Hz.wav,ep,4,1.28105780000078,1,2,117,180,65,25,4,1,3,3.94690139166667,53.6512775933333,4101.7277785
2,13,12,AsyncTheta,179,1186_4Hz.avi,guitar30_oneeighty_4Hz.wav,guitar,3,2.8740200000002,1,2,93,3,179,161,3,10,5,3.94690139166667,53.6512775933333,4105.3612513
2,14,12,SyncTheta,3,1156_4Hz.avi,guitar31_zero_4Hz.wav,guitar,4,4.22108089999983,1,2,179,93,161,3,4,14,4,3.94690139166667,53.6512775933333,4110.8441792
2,15,12,AsyncTheta,117,1144_4Hz.avi,ep39_oneeighty_4Hz.wav,ep,1,2.81093199999941,0,2,65,180,25,117,4,6,4,3.94690139166667,53.6512775933333,4117.0523259
2,16,12,AsyncTheta,178,1057_4Hz.avi,willow9_oneeighty_4Hz.wav,willow,3,3.24998059999962,1,2,22,55,178,157,3,9,1,3.94690139166667,53.6512775933333,4123.0271914
