ParticipantID,TrialNumber,BlockNumber,Condition,ClipID,VideoFile,SoundFile,SoundCategory,Response,RT,Accuracy,ConditionID,Frame1,Frame2,Frame3,Frame4,CorrectKey,EncodingPosition,Rating,BlockDuration,ExperimentDuration,MemoryTestOnset
23,1,1,SyncTheta,52,1387_4Hz.avi,choir2_zero_4Hz.wav,choir,1,5.91919809999854,1,23,52,63,97,121,1,4,4,10.1009295783333,61.8354962916667,11551.4115629
23,2,1,AsyncTheta,114,1322_4Hz.avi,dar14_oneeighty_4Hz.wav,dar,2,7.26777749999928,0,23,64,147,40,114,4,9,1,10.1009295783333,61.8354962916667,11559.8034501
23,3,1,AsyncTheta,147,1304_4Hz.avi,dar10_oneeighty_4Hz.wav,dar,3,3.55314150000049,0,23,64,147,40,114,2,14,1,10.1009295783333,61.8354962916667,11570.6784175
23,4,1,SyncTheta,40,1239_4Hz.avi,dar6_zero_4Hz.wav,dar,1,4.39227399999982,0,23,114,40,64,147,2,12,1,10.1009295783333,61.8354962916667,11577.2451954
23,5,1,SyncTheta,5,1381_4Hz.avi,acoustic1_zero_4Hz.wav,acoustic,3,6.54386519999935,0,23,5,20,105,79,1,3,3,10.1009295783333,61.8354962916667,11584.7452331
23,6,1,SyncTheta,20,1236_4Hz.avi,acoustic25_zero_4Hz.wav,acoustic,3,3.7644306000002,1,23,79,105,20,5,3,10,5,10.1009295783333,61.8354962916667,11593.6537014
23,7,1,AsyncTheta,97,1368_4Hz.avi,choir30_oneeighty_4Hz.wav,choir,4,3.59568709999985,1,23,52,63,121,97,4,13,4,10.1009295783333,61.8354962916667,11600.5120251
23,8,1,SyncTheta,64,1098_4Hz.avi,dar11_zero_4Hz.wav,dar,2,4.24288990000059,1,23,147,64,40,114,2,16,4,10.1009295783333,61.8354962916667,11606.8956194
23,9,1,AsyncTheta,105,1003_4Hz.avi,acoustic6_oneeighty_4Hz.wav,acoustic,3,3.75828120000006,0,23,20,105,79,5,2,6,2,10.1009295783333,61.8354962916667,11614.6540369
23,10,1,AsyncTheta,79,1071_4Hz.avi,acoustic17_oneeighty_4Hz.wav,acoustic,3,7.79321999999956,1,23,20,105,79,5,3,2,3,10.1009295783333,61.8354962916667,11620.8039559
23,11,1,SyncTheta,102,1012_4Hz.avi,orch18_zero_4Hz.wav,orch,4,7.36331360000077,0,23,158,102,28,188,2,11,3,10.1009295783333,61.8354962916667,11630.5458678
23,12,1,SyncTheta,63,1128_4Hz.avi,choir26_zero_4Hz.wav,choir,3,5.05182890000106,0,23,52,63,121,97,2,1,2,10.1009295783333,61.8354962916667,11640.7958021
23,13,1,AsyncTheta,121,1354_4Hz.avi,choir22_oneeighty_4Hz.wav,choir,1,7.23290660000021,0,23,52,63,121,97,3,15,1,10.1009295783333,61.8354962916667,11647.5293721
23,14,1,AsyncTheta,158,1206_4Hz.avi,orch6_oneeighty_4Hz.wav,orch,1,4.98216909999974,0,23,188,158,28,102,2,5,1,10.1009295783333,61.8354962916667,11656.5043177
23,15,1,AsyncTheta,188,1036_4Hz.avi,orch26_oneeighty_4Hz.wav,orch,1,3.62486530000024,0,23,28,158,102,188,4,8,3,10.1009295783333,61.8354962916667,11663.837855
23,16,1,SyncTheta,28,1148_4Hz.avi,orch19_zero_4Hz.wav,orch,2,7.68596959999923,1,23,158,28,188,102,2,7,1,10.1009295783333,61.8354962916667,11669.4795751
23,1,2,NoFlickerFull,112,1388_half_amp.avi,guitar39_half_amp.wav,guitar,4,5.23222259999966,0,23,59,112,185,67,2,10,2,4.69922693333333,61.8354962916667,11857.8039468
23,2,2,NoFlickerFull,155,1042_half_amp.avi,synth10_half_amp.wav,synth,2,3.24793890000001,1,23,127,155,71,8,2,1,3,4.69922693333333,61.8354962916667,11864.7288832
23,3,2,NoFlickerFull,127,1411_half_amp.avi,synth28_half_amp.wav,synth,3,3.42188840000017,1,23,155,8,127,71,3,9,1,4.69922693333333,61.8354962916667,11869.7619468
23,4,2,NoFlickerHalf,8,1252_half_length.avi,synth25_half_length.wav,synth,3,5.15565969999989,0,23,8,127,71,155,1,3,5,4.69922693333333,61.8354962916667,11876.1286795
23,5,2,NoFlickerHalf,87,1142_half_length.avi,ep3_half_length.wav,ep,2,4.69231760000002,1,23,150,87,176,41,2,7,4,4.69922693333333,61.8354962916667,11883.8280969
23,6,2,NoFlickerFull,150,1394_half_amp.avi,ep11_half_amp.wav,ep,2,3.59989919999862,0,23,41,87,150,176,3,16,4,4.69922693333333,61.8354962916667,11890.561197
23,7,2,NoFlickerHalf,67,1310_half_length.avi,guitar21_half_length.wav,guitar,1,4.16601719999926,0,23,112,185,59,67,4,13,2,4.69922693333333,61.8354962916667,11896.0026951
23,8,2,NoFlickerHalf,71,1076_half_length.avi,synth21_half_length.wav,synth,4,4.01285600000119,0,23,71,8,155,127,1,12,1,4.69922693333333,61.8354962916667,11903.6859806
23,9,2,NoFlickerFull,176,1405_half_amp.avi,ep46_half_amp.wav,ep,4,4.13866289999896,1,23,150,87,41,176,4,8,5,4.69922693333333,61.8354962916667,11910.7522442
23,10,2,NoFlickerHalf,41,1132_half_length.avi,ep10_half_length.wav,ep,1,2.67816820000007,0,23,150,41,87,176,2,6,2,4.69922693333333,61.8354962916667,11917.2937259
23,11,2,NoFlickerFull,152,1445_half_amp.avi,willow2_half_amp.wav,willow,4,4.81092069999977,0,23,32,152,171,37,2,14,2,4.69922693333333,61.8354962916667,11922.3020436
23,12,2,NoFlickerHalf,59,1346_half_length.avi,guitar33_half_length.wav,guitar,2,4.98214710000138,0,23,59,67,185,112,1,4,1,4.69922693333333,61.8354962916667,11929.6101396
23,13,2,NoFlickerFull,185,1131_half_amp.avi,guitar45_half_amp.wav,guitar,2,3.36458029999994,1,23,112,185,67,59,2,15,1,4.69922693333333,61.8354962916667,11936.3349137
23,14,2,NoFlickerFull,171,1280_half_amp.avi,willow19_half_amp.wav,willow,1,4.58821790000002,1,23,171,152,32,37,1,2,3,4.69922693333333,61.8354962916667,11942.3095915
23,15,2,NoFlickerHalf,32,1360_half_length.avi,willow10_half_length.wav,willow,2,3.7984720000004,0,23,171,37,152,32,4,11,1,4.69922693333333,61.8354962916667,11949.2261698
23,16,2,NoFlickerHalf,37,1237_half_length.avi,willow15_half_length.wav,willow,1,3.89731209999991,0,23,152,32,37,171,3,5,4,4.69922693333333,61.8354962916667,11955.4259349
23,1,3,NoFlickerFull,151,1259_half_amp.avi,guitar43_half_amp.wav,guitar,4,11.7013671999994,1,23,46,183,77,151,4,5,3,4.65333668333333,61.8354962916667,12108.7876008
23,2,3,NoFlickerHalf,100,1107_half_length.avi,synth23_half_length.wav,synth,4,3.98697489999904,1,23,95,129,184,100,4,4,3,4.65333668333333,61.8354962916667,12123.0538116
23,3,3,NoFlickerHalf,95,1359_half_length.avi,synth33_half_length.wav,synth,4,3.46931439999935,1,23,129,100,184,95,4,11,1,4.65333668333333,61.8354962916667,12129.9619481
23,4,3,NoFlickerFull,129,1286_half_amp.avi,synth30_half_amp.wav,synth,4,6.14983240000038,1,23,184,95,100,129,4,10,5,4.65333668333333,61.8354962916667,12136.9785421
23,5,3,NoFlickerHalf,16,1442_half_length.avi,ep34_half_length.wav,ep,1,4.33439110000108,0,23,177,144,16,24,3,6,1,4.65333668333333,61.8354962916667,12145.5699386
23,6,3,NoFlickerFull,144,1255_half_amp.avi,ep28_half_amp.wav,ep,1,3.73000289999982,1,23,144,24,177,16,1,9,2,4.65333668333333,61.8354962916667,12152.5447012
23,7,3,NoFlickerFull,183,1374_half_amp.avi,guitar16_half_amp.wav,guitar,1,3.85123099999873,1,23,183,151,46,77,1,15,3,4.65333668333333,61.8354962916667,12159.7444749
23,8,3,NoFlickerFull,184,1052_half_amp.avi,synth40_half_amp.wav,synth,4,4.27292649999981,1,23,95,129,100,184,4,13,1,4.65333668333333,61.8354962916667,12166.1692743
23,9,3,NoFlickerFull,177,1283_half_amp.avi,ep38_half_amp.wav,ep,1,5.19161619999977,1,23,177,144,16,24,1,8,5,4.65333668333333,61.8354962916667,12173.4605563
23,10,3,NoFlickerHalf,24,1217_half_length.avi,ep44_half_length.wav,ep,2,5.93637359999957,0,23,24,16,144,177,1,1,2,4.65333668333333,61.8354962916667,12181.4271157
23,11,3,NoFlickerFull,167,1177_half_amp.avi,willow24_half_amp.wav,willow,1,7.3504783999997,0,23,118,66,167,27,3,14,1,4.65333668333333,61.8354962916667,12188.9936312
23,12,3,NoFlickerHalf,77,1008_half_length.avi,guitar42_half_length.wav,guitar,3,3.11379250000027,1,23,151,46,77,183,3,3,2,4.65333668333333,61.8354962916667,12198.3931062
23,13,3,NoFlickerHalf,46,1210_half_length.avi,guitar48_half_length.wav,guitar,4,9.87734869999986,1,23,77,183,151,46,4,16,4,4.65333668333333,61.8354962916667,12204.4095891
23,14,3,NoFlickerHalf,66,1215_half_length.avi,willow18_half_length.wav,willow,2,6.38769870000033,0,23,118,27,167,66,4,2,4,4.65333668333333,61.8354962916667,12217.3259766
23,15,3,NoFlickerFull,118,1020_half_amp.avi,willow22_half_amp.wav,willow,1,7.33603079999921,1,23,118,167,27,66,1,12,2,4.65333668333333,61.8354962916667,12225.4174053
23,16,3,NoFlickerHalf,27,1202_half_length.avi,willow16_half_length.wav,willow,1,3.35461369999939,0,23,167,27,118,66,2,7,2,4.65333668333333,61.8354962916667,12235.3420852
23,1,4,SyncTheta,11,1448_4Hz.avi,choir36_zero_4Hz.wav,choir,2,6.44178049999937,0,23,11,88,10,76,1,3,3,4.49573156833333,61.8354962916667,12394.6453904
23,2,4,AsyncTheta,162,1358_4Hz.avi,dar7_oneeighty_4Hz.wav,dar,3,3.47590929999933,1,23,49,82,162,29,3,4,3,4.49573156833333,61.8354962916667,12404.470115
23,3,4,AsyncTheta,82,1449_4Hz.avi,dar17_oneeighty_4Hz.wav,dar,4,5.3100900999998,1,23,29,49,162,82,4,12,2,4.49573156833333,61.8354962916667,12409.8200643
23,4,4,SyncTheta,29,1158_4Hz.avi,dar23_zero_4Hz.wav,dar,4,2.32173560000047,1,23,162,49,82,29,4,10,5,4.49573156833333,61.8354962916667,12417.0947144
23,5,4,SyncTheta,58,1323_4Hz.avi,acoustic29_zero_4Hz.wav,acoustic,4,5.62583620000078,0,23,58,104,1,83,1,8,4,4.49573156833333,61.8354962916667,12422.7528673
23,6,4,SyncTheta,1,1064_4Hz.avi,acoustic12_zero_4Hz.wav,acoustic,3,5.81541639999887,0,23,83,1,58,104,2,16,3,4.49573156833333,61.8354962916667,12430.6692891
23,7,4,AsyncTheta,88,1191_4Hz.avi,choir20_oneeighty_4Hz.wav,choir,2,7.47450170000047,0,23,76,11,10,88,4,5,1,4.49573156833333,61.8354962916667,12439.2023711
23,8,4,SyncTheta,49,1221_4Hz.avi,dar21_zero_4Hz.wav,dar,2,4.93067990000054,1,23,162,49,82,29,2,15,1,4.49573156833333,61.8354962916667,12449.1018947
23,9,4,AsyncTheta,104,1111_4Hz.avi,acoustic31_oneeighty_4Hz.wav,acoustic,4,2.56559809999999,1,23,1,58,83,104,4,11,2,4.49573156833333,61.8354962916667,12456.7850261
23,10,4,AsyncTheta,83,1139_4Hz.avi,acoustic27_oneeighty_4Hz.wav,acoustic,1,4.94790180000018,0,23,1,83,58,104,2,6,3,4.49573156833333,61.8354962916667,12462.4432921
23,11,4,SyncTheta,42,1339_4Hz.avi,orch31_zero_4Hz.wav,orch,2,3.62659290000011,0,23,134,137,57,42,4,14,1,4.49573156833333,61.8354962916667,12469.5680838
23,12,4,AsyncTheta,76,1293_4Hz.avi,choir23_oneeighty_4Hz.wav,choir,3,5.31407159999981,0,23,88,11,10,76,4,2,1,4.49573156833333,61.8354962916667,12474.9262502
23,13,4,SyncTheta,10,1179_4Hz.avi,choir4_zero_4Hz.wav,choir,2,4.59004529999947,0,23,88,11,10,76,3,13,2,4.49573156833333,61.8354962916667,12482.634354
23,14,4,AsyncTheta,134,1026_4Hz.avi,orch16_oneeighty_4Hz.wav,orch,2,5.03209310000057,0,23,57,137,134,42,3,1,1,4.49573156833333,61.8354962916667,12490.717304
23,15,4,AsyncTheta,137,1303_4Hz.avi,orch10_oneeighty_4Hz.wav,orch,2,3.59082480000143,0,23,137,57,134,42,1,9,1,4.49573156833333,61.8354962916667,12499.1337966
23,16,4,SyncTheta,57,1309_4Hz.avi,orch7_zero_4Hz.wav,orch,2,2.41272089999984,0,23,134,42,137,57,4,7,4,4.49573156833333,61.8354962916667,12506.2419348
23,1,5,AsyncTheta,78,1301_4Hz.avi,choir11_oneeighty_4Hz.wav,choir,2,7.29004180000084,1,23,68,78,159,69,2,13,1,4.98391151166667,61.8354962916667,12681.9946181
23,2,5,AsyncTheta,122,1289_4Hz.avi,dar3_oneeighty_4Hz.wav,dar,4,7.34929299999931,1,23,191,14,34,122,4,2,1,4.98391151166667,61.8354962916667,12691.3111601
23,3,5,SyncTheta,34,1319_4Hz.avi,dar22_zero_4Hz.wav,dar,1,4.71087110000008,0,23,191,14,122,34,4,8,2,4.98391151166667,61.8354962916667,12701.7606607
23,4,5,AsyncTheta,191,1314_4Hz.avi,dar19_oneeighty_4Hz.wav,dar,1,5.1306454000005,0,23,34,14,191,122,3,6,4,4.98391151166667,61.8354962916667,12708.8437866
23,5,5,AsyncTheta,190,1427_4Hz.avi,acoustic46_oneeighty_4Hz.wav,acoustic,2,6.31875570000011,0,23,21,44,148,190,4,3,1,4.98391151166667,61.8354962916667,12715.9268712
23,6,5,SyncTheta,44,1254_4Hz.avi,acoustic48_zero_4Hz.wav,acoustic,3,3.45524899999873,1,23,148,21,44,190,3,10,2,4.98391151166667,61.8354962916667,12725.7183836
23,7,5,SyncTheta,69,1216_4Hz.avi,choir32_zero_4Hz.wav,choir,3,7.24310829999922,0,23,159,69,68,78,2,14,1,4.98391151166667,61.8354962916667,12731.3764333
23,8,5,SyncTheta,14,1416_4Hz.avi,dar1_zero_4Hz.wav,dar,2,6.89496999999938,1,23,191,14,122,34,2,9,1,4.98391151166667,61.8354962916667,12742.1012137
23,9,5,AsyncTheta,148,1121_4Hz.avi,acoustic26_oneeighty_4Hz.wav,acoustic,4,3.66953090000061,1,23,44,190,21,148,4,7,3,4.98391151166667,61.8354962916667,12751.8507367
23,10,5,SyncTheta,21,1112_4Hz.avi,acoustic32_zero_4Hz.wav,acoustic,3,4.88044359999913,0,23,21,44,148,190,1,1,3,4.98391151166667,61.8354962916667,12758.792191
23,11,5,SyncTheta,36,1284_4Hz.avi,orch29_zero_4Hz.wav,orch,4,7.11650790000022,0,23,141,142,36,30,3,15,2,4.98391151166667,61.8354962916667,12766.1754239
23,12,5,SyncTheta,68,1023_4Hz.avi,choir3_zero_4Hz.wav,choir,4,6.30679779999991,0,23,68,78,159,69,1,5,2,4.98391151166667,61.8354962916667,12775.6919486
23,13,5,AsyncTheta,159,1091_4Hz.avi,choir8_oneeighty_4Hz.wav,choir,2,2.31921239999974,1,23,78,159,69,68,2,16,1,4.98391151166667,61.8354962916667,12784.891398
23,14,5,AsyncTheta,142,1155_4Hz.avi,orch9_oneeighty_4Hz.wav,orch,3,4.72454330000073,1,23,30,36,142,141,3,4,4,4.98391151166667,61.8354962916667,12789.632934
23,15,5,AsyncTheta,141,1401_4Hz.avi,orch12_oneeighty_4Hz.wav,orch,1,3.88087470000028,1,23,141,36,30,142,1,12,4,4.98391151166667,61.8354962916667,12797.6578181
23,16,5,SyncTheta,30,1016_4Hz.avi,orch14_zero_4Hz.wav,orch,4,3.60164599999916,1,23,36,142,141,30,4,11,2,4.98391151166667,61.8354962916667,12804.2909431
23,1,6,NoFlickerHalf,7,1017_half_length.avi,guitar47_half_length.wav,guitar,2,9.1642496000004,1,23,73,7,172,168,2,7,1,4.609580345,61.8354962916667,12963.3443783
23,2,6,NoFlickerFull,163,1441_half_amp.avi,synth27_half_amp.wav,synth,2,3.40146050000112,1,23,140,163,89,50,2,2,1,4.609580345,61.8354962916667,12975.0021953
23,3,6,NoFlickerFull,140,1270_half_amp.avi,synth17_half_amp.wav,synth,2,6.40397889999986,1,23,89,140,163,50,2,5,3,4.609580345,61.8354962916667,12980.7271571
23,4,6,NoFlickerHalf,50,1049_half_length.avi,synth43_half_length.wav,synth,4,2.61372889999984,1,23,89,140,163,50,4,3,1,4.609580345,61.8354962916667,12990.3518605
23,5,6,NoFlickerFull,173,1348_half_amp.avi,ep31_half_amp.wav,ep,4,8.72841330000119,1,23,26,99,138,173,4,9,5,4.609580345,61.8354962916667,12994.7099255
23,6,6,NoFlickerHalf,26,1190_half_length.avi,ep7_half_length.wav,ep,2,5.99490200000037,1,23,138,26,99,173,2,14,3,4.609580345,61.8354962916667,13006.368018
23,7,6,NoFlickerFull,168,1204_half_amp.avi,guitar36_half_amp.wav,guitar,4,4.11949199999981,1,23,73,172,7,168,4,13,2,4.609580345,61.8354962916667,13014.526133
23,8,6,NoFlickerHalf,89,1393_half_length.avi,synth41_half_length.wav,synth,2,2.48926909999864,1,23,140,89,163,50,2,11,1,4.609580345,61.8354962916667,13020.7175836
23,9,6,NoFlickerHalf,99,1173_half_length.avi,ep6_half_length.wav,ep,3,6.68716160000076,0,23,99,26,138,173,1,10,3,4.609580345,61.8354962916667,13026.3005877
23,10,6,NoFlickerFull,138,1149_half_amp.avi,ep2_half_amp.wav,ep,4,5.67790319999949,1,23,99,26,173,138,4,8,4,4.609580345,61.8354962916667,13035.9254456
23,11,6,NoFlickerFull,120,1365_half_amp.avi,willow21_half_amp.wav,willow,4,6.46823030000087,1,23,130,48,108,120,4,15,4,4.609580345,61.8354962916667,13043.1583732
23,12,6,NoFlickerHalf,73,1369_half_length.avi,guitar19_half_length.wav,guitar,4,6.68957369999953,1,23,172,7,168,73,4,4,2,4.609580345,61.8354962916667,13051.916616
23,13,6,NoFlickerFull,172,1350_half_amp.avi,guitar10_half_amp.wav,guitar,3,1.62779840000076,1,23,7,73,172,168,3,16,1,4.609580345,61.8354962916667,13060.9579308
23,14,6,NoFlickerHalf,48,1021_half_length.avi,willow12_half_length.wav,willow,3,5.35519320000094,0,23,108,48,130,120,2,1,1,4.609580345,61.8354962916667,13066.0995133
23,15,6,NoFlickerFull,130,1081_half_amp.avi,willow5_half_amp.wav,willow,4,5.17249989999982,0,23,120,130,108,48,2,12,2,4.609580345,61.8354962916667,13073.0741294
23,16,6,NoFlickerHalf,108,1415_half_length.avi,willow3_half_length.wav,willow,3,4.01331190000019,0,23,48,120,130,108,4,6,1,4.609580345,61.8354962916667,13080.6824041
23,1,7,NoFlickerFull,164,1087_half_amp.avi,guitar17_half_amp.wav,guitar,3,3.17373029999908,1,23,146,90,164,84,3,11,1,4.48925968,61.8354962916667,13241.1275256
23,2,7,NoFlickerFull,111,1390_half_amp.avi,synth3_half_amp.wav,synth,2,4.66064340000048,1,23,35,111,131,51,2,3,1,4.48925968,61.8354962916667,13246.1273153
23,3,7,NoFlickerFull,131,1366_half_amp.avi,synth34_half_amp.wav,synth,4,5.12843819999944,1,23,111,51,35,131,4,12,2,4.48925968,61.8354962916667,13253.6604104
23,4,7,NoFlickerHalf,35,1039_half_length.avi,synth5_half_length.wav,synth,3,4.46618730000046,1,23,131,51,35,111,3,10,1,4.48925968,61.8354962916667,13260.6350549
23,5,7,NoFlickerHalf,101,1295_half_length.avi,ep40_half_length.wav,ep,2,4.86083529999996,1,23,86,101,132,166,2,5,3,4.48925968,61.8354962916667,13267.7266484
23,6,7,NoFlickerHalf,86,1278_half_length.avi,ep35_half_length.wav,ep,2,4.15213079999921,0,23,101,166,132,86,4,8,3,4.48925968,61.8354962916667,13275.0847408
23,7,7,NoFlickerHalf,90,1273_half_length.avi,guitar23_half_length.wav,guitar,3,4.6126562999998,0,23,90,84,146,164,1,13,1,4.48925968,61.8354962916667,13281.617879
23,8,7,NoFlickerHalf,51,1331_half_length.avi,synth47_half_length.wav,synth,4,2.21817079999892,1,23,35,111,131,51,4,15,2,4.48925968,61.8354962916667,13289.0175388
23,9,7,NoFlickerFull,132,1356_half_amp.avi,ep30_half_amp.wav,ep,3,8.21319330000006,1,23,86,166,132,101,3,7,5,4.48925968,61.8354962916667,13294.4841337
23,10,7,NoFlickerFull,166,1227_half_amp.avi,ep5_half_amp.wav,ep,1,5.18278060000011,1,23,166,86,132,101,1,1,3,4.48925968,61.8354962916667,13304.3255104
23,11,7,NoFlickerFull,149,1200_half_amp.avi,willow8_half_amp.wav,willow,1,6.58702079999966,0,23,18,119,94,149,4,16,1,4.48925968,61.8354962916667,13312.2169012
23,12,7,NoFlickerHalf,84,1294_half_length.avi,guitar6_half_length.wav,guitar,1,4.81152320000001,1,23,84,90,146,164,1,6,1,4.48925968,61.8354962916667,13321.099887
23,13,7,NoFlickerFull,146,1005_half_amp.avi,guitar14_half_amp.wav,guitar,1,5.37274830000024,1,23,146,84,164,90,1,14,1,4.48925968,61.8354962916667,13329.2664172
23,14,7,NoFlickerHalf,94,1109_half_length.avi,willow6_half_length.wav,willow,4,5.16285110000172,0,23,149,94,18,119,2,2,1,4.48925968,61.8354962916667,13337.3244979
23,15,7,NoFlickerFull,119,1189_half_amp.avi,willow11_half_amp.wav,willow,3,4.04852570000003,1,23,149,94,119,18,3,9,3,4.48925968,61.8354962916667,13344.7325952
23,16,7,NoFlickerHalf,18,1101_half_length.avi,willow13_half_length.wav,willow,1,3.41990500000065,0,23,94,119,149,18,4,4,3,4.48925968,61.8354962916667,13350.8657709
23,1,8,SyncTheta,19,1247_4Hz.avi,choir38_zero_4Hz.wav,choir,3,6.42347369999879,0,23,38,139,181,19,4,5,3,4.79903683833333,61.8354962916667,13521.3271903
23,2,8,AsyncTheta,187,1164_4Hz.avi,dar12_oneeighty_4Hz.wav,dar,2,5.61280840000109,1,23,56,187,103,31,2,2,1,4.79903683833333,61.8354962916667,13530.5935803
23,3,8,SyncTheta,31,1404_4Hz.avi,dar8_zero_4Hz.wav,dar,1,1.87186479999946,1,23,31,103,56,187,1,9,3,4.79903683833333,61.8354962916667,13539.2765264
23,4,8,SyncTheta,56,1063_4Hz.avi,dar16_zero_4Hz.wav,dar,4,6.52130089999991,1,23,31,103,187,56,4,7,1,4.79903683833333,61.8354962916667,13542.9347325
23,5,8,SyncTheta,47,1292_4Hz.avi,acoustic28_zero_4Hz.wav,acoustic,1,6.42837249999866,0,23,175,133,47,23,3,6,1,4.79903683833333,61.8354962916667,13552.9095228
23,6,8,SyncTheta,23,1330_4Hz.avi,acoustic47_zero_4Hz.wav,acoustic,2,7.02036659999976,0,23,133,47,23,175,3,16,4,4.79903683833333,61.8354962916667,13561.7092885
23,7,8,AsyncTheta,181,1168_4Hz.avi,choir1_oneeighty_4Hz.wav,choir,3,5.6914727000003,0,23,139,181,19,38,2,10,2,4.79903683833333,61.8354962916667,13570.825698
23,8,8,AsyncTheta,103,1084_4Hz.avi,dar20_oneeighty_4Hz.wav,dar,3,5.21100529999967,0,23,31,187,56,103,4,15,4,4.79903683833333,61.8354962916667,13579.7337091
23,9,8,AsyncTheta,133,1341_4Hz.avi,acoustic14_oneeighty_4Hz.wav,acoustic,1,3.01996700000018,1,23,133,23,47,175,1,13,3,4.79903683833333,61.8354962916667,13587.0000274
23,10,8,AsyncTheta,175,1103_4Hz.avi,acoustic10_oneeighty_4Hz.wav,acoustic,1,5.36346950000006,0,23,23,175,47,133,2,4,4,4.79903683833333,61.8354962916667,13591.8833302
23,11,8,AsyncTheta,165,1410_4Hz.avi,orch43_oneeighty_4Hz.wav,orch,1,3.53443770000013,0,23,17,165,33,145,2,12,1,4.79903683833333,61.8354962916667,13599.2664732
23,12,8,AsyncTheta,139,1192_4Hz.avi,choir5_oneeighty_4Hz.wav,choir,3,4.03334299999915,1,23,38,181,139,19,3,1,1,4.79903683833333,61.8354962916667,13604.8996372
23,13,8,SyncTheta,38,1184_4Hz.avi,choir33_zero_4Hz.wav,choir,4,4.43689099999938,1,23,139,181,19,38,4,14,1,4.79903683833333,61.8354962916667,13611.4077825
23,14,8,AsyncTheta,145,1352_4Hz.avi,orch39_oneeighty_4Hz.wav,orch,4,9.77780470000107,1,23,33,17,165,145,4,3,3,4.79903683833333,61.8354962916667,13617.9323778
23,15,8,SyncTheta,33,1136_4Hz.avi,orch38_zero_4Hz.wav,orch,3,4.03668939999989,0,23,145,33,165,17,2,11,2,4.79903683833333,61.8354962916667,13629.5988772
23,16,8,SyncTheta,17,1162_4Hz.avi,orch1_zero_4Hz.wav,orch,3,6.92224630000055,1,23,145,165,17,33,3,8,4,4.79903683833333,61.8354962916667,13635.5402019
23,1,9,AsyncTheta,182,1277_4Hz.avi,choir39_oneeighty_4Hz.wav,choir,1,9.15735049999967,1,23,182,98,12,62,1,11,3,4.852851095,61.8354962916667,13816.4430026
23,2,9,AsyncTheta,126,1298_4Hz.avi,dar9_oneeighty_4Hz.wav,dar,2,5.87254869999924,1,23,116,126,43,45,2,1,1,4.852851095,61.8354962916667,13828.9677088
23,3,9,SyncTheta,43,1141_4Hz.avi,dar13_zero_4Hz.wav,dar,4,3.73069050000049,1,23,116,45,126,43,4,3,2,4.852851095,61.8354962916667,13837.0507146
23,4,9,SyncTheta,45,1203_4Hz.avi,dar2_zero_4Hz.wav,dar,2,5.00573100000111,0,23,43,126,116,45,4,2,1,4.852851095,61.8354962916667,13842.8755673
23,5,9,SyncTheta,4,1167_4Hz.avi,acoustic37_zero_4Hz.wav,acoustic,1,6.77997789999972,1,23,4,9,107,96,1,10,1,4.852851095,61.8354962916667,13850.0337713
23,6,9,SyncTheta,9,1054_4Hz.avi,acoustic44_zero_4Hz.wav,acoustic,2,4.77700759999971,1,23,4,9,107,96,2,16,5,4.852851095,61.8354962916667,13860.3416351
23,7,9,AsyncTheta,98,1014_4Hz.avi,choir41_oneeighty_4Hz.wav,choir,4,5.05224380000072,0,23,182,98,62,12,2,12,2,4.852851095,61.8354962916667,13868.4913939
23,8,9,AsyncTheta,116,1420_4Hz.avi,dar18_oneeighty_4Hz.wav,dar,4,3.53351779999866,1,23,45,126,43,116,4,8,3,4.852851095,61.8354962916667,13875.2995231
23,9,9,AsyncTheta,96,1027_4Hz.avi,acoustic40_oneeighty_4Hz.wav,acoustic,1,4.13518610000028,1,23,96,107,4,9,1,15,2,4.852851095,61.8354962916667,13882.0327674
23,10,9,AsyncTheta,107,1265_4Hz.avi,acoustic16_oneeighty_4Hz.wav,acoustic,2,1.8396843999999,1,23,9,107,4,96,2,6,4,4.852851095,61.8354962916667,13889.7907777
23,11,9,SyncTheta,74,1337_4Hz.avi,orch24_zero_4Hz.wav,orch,3,5.21448649999911,0,23,174,91,110,74,4,13,3,4.852851095,61.8354962916667,13895.0490602
23,12,9,SyncTheta,12,1077_4Hz.avi,choir18_zero_4Hz.wav,choir,4,4.83139510000001,1,23,182,62,98,12,4,4,1,4.852851095,61.8354962916667,13902.2488484
23,13,9,SyncTheta,62,1058_4Hz.avi,choir19_zero_4Hz.wav,choir,3,3.54349430000002,1,23,98,12,62,182,3,14,3,4.852851095,61.8354962916667,13910.1986053
23,14,9,SyncTheta,91,1340_4Hz.avi,orch46_zero_4Hz.wav,orch,2,5.22628189999887,0,23,74,174,91,110,3,5,1,4.852851095,61.8354962916667,13915.798435
23,15,9,AsyncTheta,174,1119_4Hz.avi,orch45_oneeighty_4Hz.wav,orch,4,3.48474330000136,1,23,74,91,110,174,4,9,1,4.852851095,61.8354962916667,13923.2315353
23,16,9,AsyncTheta,110,1443_4Hz.avi,orch3_oneeighty_4Hz.wav,orch,4,4.11692220000077,0,23,174,74,110,91,3,7,3,4.852851095,61.8354962916667,13929.7646656
23,1,10,NoFlickerFull,115,1370_half_amp.avi,guitar9_half_amp.wav,guitar,1,5.9387958999996,1,23,115,15,53,170,1,5,1,4.36434808166667,61.8354962916667,14079.5432263
23,2,10,NoFlickerFull,186,1031_half_amp.avi,synth7_half_amp.wav,synth,3,5.88217459999942,0,23,186,61,54,128,1,3,3,4.36434808166667,61.8354962916667,14088.2514513
23,3,10,NoFlickerHalf,54,1181_half_length.avi,synth12_half_length.wav,synth,1,2.79159359999903,1,23,54,186,61,128,1,12,2,4.36434808166667,61.8354962916667,14096.7927189
23,4,10,NoFlickerHalf,61,1207_half_length.avi,synth46_half_length.wav,synth,4,5.11322370000016,0,23,54,61,128,186,2,10,1,4.36434808166667,61.8354962916667,14102.3842444
23,5,10,NoFlickerHalf,106,1113_half_length.avi,ep29_half_length.wav,ep,2,5.02050979999876,1,23,189,106,123,6,2,8,4,4.36434808166667,61.8354962916667,14109.9091506
23,6,10,NoFlickerFull,189,1051_half_amp.avi,ep14_half_amp.wav,ep,2,5.92648649999865,0,23,6,123,189,106,3,16,1,4.36434808166667,61.8354962916667,14117.4172252
23,7,10,NoFlickerFull,170,1062_half_amp.avi,guitar3_half_amp.wav,guitar,4,6.28340879999996,0,23,53,115,170,15,3,9,3,4.36434808166667,61.8354962916667,14126.2752757
23,8,10,NoFlickerFull,128,1269_half_amp.avi,synth14_half_amp.wav,synth,4,3.62579120000009,1,23,186,54,61,128,4,15,2,4.36434808166667,61.8354962916667,14134.3917142
23,9,10,NoFlickerHalf,6,1007_half_length.avi,ep8_half_length.wav,ep,2,3.07570310000119,1,23,189,6,123,106,2,13,4,4.36434808166667,61.8354962916667,14140.8081687
23,10,10,NoFlickerFull,123,1067_half_amp.avi,ep37_half_amp.wav,ep,2,4.6516090999994,1,23,189,123,106,6,2,4,4,4.36434808166667,61.8354962916667,14147.1496339
23,11,10,NoFlickerHalf,75,1040_half_length.avi,willow17_half_length.wav,willow,2,7.0330380000014,1,23,153,75,92,156,2,11,1,4.36434808166667,61.8354962916667,14155.0827218
23,12,10,NoFlickerHalf,15,1422_half_length.avi,guitar37_half_length.wav,guitar,1,4.50838490000024,0,23,170,15,115,53,2,1,3,4.36434808166667,61.8354962916667,14163.7407935
23,13,10,NoFlickerHalf,53,1197_half_length.avi,guitar46_half_length.wav,guitar,4,5.64896379999846,1,23,15,115,170,53,4,14,2,4.36434808166667,61.8354962916667,14170.7737835
23,14,10,NoFlickerFull,153,1157_half_amp.avi,willow1_half_amp.wav,willow,2,3.98600540000007,0,23,92,156,75,153,4,2,5,4.36434808166667,61.8354962916667,14179.715167
23,15,10,NoFlickerFull,156,1060_half_amp.avi,willow7_half_amp.wav,willow,2,4.31587430000036,0,23,92,153,156,75,3,7,4,4.36434808166667,61.8354962916667,14185.2649769
23,16,10,NoFlickerHalf,92,1030_half_length.avi,willow23_half_length.wav,willow,4,4.81610580000051,0,23,92,156,153,75,1,6,1,4.36434808166667,61.8354962916667,14191.1982937
23,1,11,NoFlickerFull,179,1186_half_amp.avi,guitar30_half_amp.wav,guitar,1,4.2342895999991,1,23,179,3,161,93,1,2,4,4.81977657666667,61.8354962916667,14360.4680879
23,2,11,NoFlickerHalf,70,1093_half_length.avi,synth6_half_length.wav,synth,4,8.61474970000017,0,23,125,70,109,135,2,5,3,4.81977657666667,61.8354962916667,14368.001186
23,3,11,NoFlickerFull,135,1154_half_amp.avi,synth38_half_amp.wav,synth,1,7.45195890000105,0,23,109,135,70,125,2,9,1,4.81977657666667,61.8354962916667,14378.5758682
23,4,11,NoFlickerFull,125,1050_half_amp.avi,synth36_half_amp.wav,synth,2,3.34545119999893,1,23,135,125,70,109,2,8,2,4.81977657666667,61.8354962916667,14389.4088343
23,5,11,NoFlickerFull,117,1144_half_amp.avi,ep39_half_amp.wav,ep,3,8.79519620000065,0,23,180,25,65,117,4,7,3,4.81977657666667,61.8354962916667,14395.3753356
23,6,11,NoFlickerHalf,25,1094_half_length.avi,ep15_half_length.wav,ep,4,3.6612970999995,1,23,180,117,65,25,4,14,4,4.81977657666667,61.8354962916667,14406.2250108
23,7,11,NoFlickerHalf,93,1046_half_length.avi,guitar18_half_length.wav,guitar,1,5.22042729999885,1,23,93,3,161,179,1,3,1,4.81977657666667,61.8354962916667,14411.7913444
23,8,11,NoFlickerHalf,109,1299_half_length.avi,synth18_half_length.wav,synth,3,9.95181609999963,0,23,109,135,70,125,1,12,2,4.81977657666667,61.8354962916667,14419.3579286
23,9,11,NoFlickerFull,180,1006_half_amp.avi,ep4_half_amp.wav,ep,1,4.97619829999894,1,23,180,65,117,25,1,11,2,4.81977657666667,61.8354962916667,14432.2824001
23,10,11,NoFlickerHalf,65,1013_half_length.avi,ep22_half_length.wav,ep,4,2.32294399999955,0,23,180,25,65,117,3,6,4,4.81977657666667,61.8354962916667,14439.5073065
23,11,11,NoFlickerFull,178,1057_half_amp.avi,willow9_half_amp.wav,willow,3,7.24106719999872,0,23,55,178,157,22,2,15,4,4.81977657666667,61.8354962916667,14444.2487825
23,12,11,NoFlickerFull,161,1433_half_amp.avi,guitar2_half_amp.wav,guitar,3,5.44511250000141,1,23,93,3,161,179,3,1,3,4.81977657666667,61.8354962916667,14453.5485507
23,13,11,NoFlickerHalf,3,1156_half_length.avi,guitar31_half_length.wav,guitar,1,2.47790499999974,1,23,3,179,93,161,1,16,5,4.81977657666667,61.8354962916667,14461.7397963
23,14,11,NoFlickerHalf,22,1212_half_length.avi,willow20_half_length.wav,willow,4,5.28568559999985,1,23,178,157,55,22,4,4,1,4.81977657666667,61.8354962916667,14467.3229798
23,15,11,NoFlickerFull,157,1225_half_amp.avi,willow14_half_amp.wav,willow,2,3.87060539999948,0,23,178,55,22,157,4,13,2,4.81977657666667,61.8354962916667,14475.2228706
23,16,11,NoFlickerHalf,55,1044_half_length.avi,willow4_half_length.wav,willow,2,3.57931129999997,0,23,178,157,55,22,3,10,1,4.81977657666667,61.8354962916667,14481.8643432
23,1,12,AsyncTheta,160,1421_4Hz.avi,choir13_oneeighty_4Hz.wav,choir,3,8.54755880000084,0,23,160,72,124,13,1,9,2,4.7273923,61.8354962916667,14655.7589772
23,2,12,SyncTheta,2,1431_4Hz.avi,dar24_zero_4Hz.wav,dar,2,7.02139259999967,0,23,154,136,80,2,4,2,4,4.7273923,61.8354962916667,14666.791818
23,3,12,AsyncTheta,154,1074_4Hz.avi,dar5_oneeighty_4Hz.wav,dar,2,3.80203859999892,1,23,2,154,80,136,2,12,1,4.7273923,61.8354962916667,14677.2165182
23,4,12,SyncTheta,80,1082_4Hz.avi,dar15_zero_4Hz.wav,dar,2,5.37726979999934,0,23,136,2,154,80,4,11,1,4.7273923,61.8354962916667,14684.5496437
23,5,12,SyncTheta,39,1061_4Hz.avi,acoustic11_zero_4Hz.wav,acoustic,2,6.12629630000083,0,23,113,60,169,39,4,5,3,4.7273923,61.8354962916667,14692.1410526
23,6,12,SyncTheta,60,1249_4Hz.avi,acoustic20_zero_4Hz.wav,acoustic,2,3.39077410000027,0,23,60,113,39,169,1,8,3,4.7273923,61.8354962916667,14700.2076111
23,7,12,AsyncTheta,124,1183_4Hz.avi,choir24_oneeighty_4Hz.wav,choir,1,6.01873290000003,0,23,160,72,124,13,3,10,1,4.7273923,61.8354962916667,14705.2324802
23,8,12,AsyncTheta,136,1175_4Hz.avi,dar4_oneeighty_4Hz.wav,dar,2,3.46688220000033,0,23,136,80,154,2,1,16,2,4.7273923,61.8354962916667,14713.2572076
23,9,12,AsyncTheta,169,1083_4Hz.avi,acoustic43_oneeighty_4Hz.wav,acoustic,4,4.36942170000111,1,23,39,113,60,169,4,6,4,4.7273923,61.8354962916667,14719.7152063
23,10,12,AsyncTheta,113,1037_4Hz.avi,acoustic23_oneeighty_4Hz.wav,acoustic,1,3.44485840000016,0,23,39,113,60,169,2,4,4,4.7273923,61.8354962916667,14725.7318615
23,11,12,SyncTheta,85,1383_4Hz.avi,orch23_zero_4Hz.wav,orch,3,4.86175659999935,1,23,81,143,85,192,3,14,2,4.7273923,61.8354962916667,14731.1148794
23,12,12,SyncTheta,72,1097_4Hz.avi,choir29_zero_4Hz.wav,choir,4,4.21999799999867,1,23,160,13,124,72,4,1,3,4.7273923,61.8354962916667,14738.6648903
23,13,12,SyncTheta,13,1201_4Hz.avi,choir7_zero_4Hz.wav,choir,4,1.58802549999928,1,23,124,72,160,13,4,15,4,4.7273923,61.8354962916667,14744.6645824
23,14,12,SyncTheta,81,1444_4Hz.avi,orch4_zero_4Hz.wav,orch,3,5.65765450000072,1,23,192,143,81,85,3,3,1,4.7273923,61.8354962916667,14748.106182
23,15,12,AsyncTheta,192,1231_4Hz.avi,orch32_oneeighty_4Hz.wav,orch,3,5.01231270000062,1,23,85,143,192,81,3,13,3,4.7273923,61.8354962916667,14756.7475199
23,16,12,AsyncTheta,143,1127_4Hz.avi,orch11_oneeighty_4Hz.wav,orch,4,4.54897729999902,1,23,85,192,81,143,4,7,5,4.7273923,61.8354962916667,14764.8138414
