ParticipantID,TrialNumber,BlockNumber,Condition,ClipID,VideoFile,SoundFile,SoundCategory,Response,RT,Accuracy,ConditionID,Frame1,Frame2,Frame3,Frame4,CorrectKey,EncodingPosition,Rating,BlockDuration,ExperimentDuration,MemoryTestOnset,RunNumber,Age,Handedness,Sex
26,1,1,NoFlicker,24,1217_half_amp.avi,ep44_half_amp.wav,ep,4,3.32291850000001,0,26,6,24,106,25,2,11,1,4.88105969333333,NaN,1831.2008381,1,NaN,NaN,NaN
26,2,1,NoFlicker,51,1331_half_amp.avi,synth47_half_amp.wav,synth,2,2.64768439999989,0,26,51,8,50,109,1,3,2,4.88105969333333,NaN,1836.5508302,1,NaN,NaN,NaN
26,3,1,NoFlicker,8,1252_half_amp.avi,synth25_half_amp.wav,synth,2,5.56104310000001,0,26,50,109,51,8,4,9,4,4.88105969333333,NaN,1842.6342375,1,NaN,NaN,NaN
26,4,1,NoFlicker,27,1202_half_amp.avi,willow16_half_amp.wav,willow,3,2.89665489999993,0,26,27,32,108,18,1,6,3,4.88105969333333,NaN,1851.150893,1,NaN,NaN,NaN
26,5,1,NoFlicker,25,1094_half_amp.avi,ep15_half_amp.wav,ep,4,3.27495959999987,0,26,6,25,106,24,2,8,2,4.88105969333333,NaN,1855.700978,1,NaN,NaN,NaN
26,6,1,NoFlicker,93,1046_half_amp.avi,guitar18_half_amp.wav,guitar,3,2.18111099999987,0,26,93,3,46,15,1,5,3,4.88105969333333,NaN,1860.3676338,1,NaN,NaN,NaN
26,7,1,NoFlicker,46,1210_half_amp.avi,guitar48_half_amp.wav,guitar,1,3.00736770000003,1,26,46,93,15,3,1,15,4,4.88105969333333,NaN,1865.484353,1,NaN,NaN,NaN
26,8,1,NoFlicker,106,1113_half_amp.avi,ep29_half_amp.wav,ep,1,4.02518600000008,0,26,24,6,25,106,4,1,4,4.88105969333333,NaN,1871.9010144,1,NaN,NaN,NaN
26,9,1,NoFlicker,108,1415_half_amp.avi,willow3_half_amp.wav,willow,2,6.00080730000013,0,26,108,27,18,32,1,12,2,4.88105969333333,NaN,1877.8510459,1,NaN,NaN,NaN
26,10,1,NoFlicker,6,1007_half_amp.avi,ep8_half_amp.wav,ep,3,3.28144159999988,0,26,25,6,24,106,2,4,1,4.88105969333333,NaN,1886.3511212,1,NaN,NaN,NaN
26,11,1,NoFlicker,3,1156_half_amp.avi,guitar31_half_amp.wav,guitar,4,3.95588010000006,1,26,46,15,93,3,4,2,4,4.88105969333333,NaN,1892.167813,1,NaN,NaN,NaN
26,12,1,NoFlicker,50,1049_half_amp.avi,synth43_half_amp.wav,synth,1,7.22872270000016,0,26,51,109,8,50,4,13,1,4.88105969333333,NaN,1898.2678348,1,NaN,NaN,NaN
26,13,1,NoFlicker,18,1101_half_amp.avi,willow13_half_amp.wav,willow,1,4.7857454,1,26,18,108,27,32,1,7,2,4.88105969333333,NaN,1908.6345502,1,NaN,NaN,NaN
26,14,1,NoFlicker,109,1299_half_amp.avi,synth18_half_amp.wav,synth,1,7.62083919999986,0,26,8,109,51,50,2,10,3,4.88105969333333,NaN,1916.4679249,1,NaN,NaN,NaN
26,15,1,NoFlicker,15,1422_half_amp.avi,guitar37_half_amp.wav,guitar,3,5.33646120000003,1,26,93,3,15,46,3,14,3,4.88105969333333,NaN,1927.384593,1,NaN,NaN,NaN
26,16,1,NoFlicker,32,1360_half_amp.avi,willow10_half_amp.wav,willow,4,5.09271479999984,0,26,32,18,108,27,1,16,1,4.88105969333333,NaN,1935.8846378,1,NaN,NaN,NaN
26,1,2,AsyncTheta,4,1167_4Hz.avi,acoustic37_oneeighty_4Hz.wav,acoustic,3,5.18574260000014,1,26,58,5,4,23,3,14,4,4.60354164166667,NaN,2101.1187789,1,NaN,NaN,NaN
26,2,2,AsyncTheta,29,1158_4Hz.avi,dar23_oneeighty_4Hz.wav,dar,1,5.63487989999976,0,26,14,64,43,29,4,2,1,4.60354164166667,NaN,2108.1688189,1,NaN,NaN,NaN
26,3,2,AsyncTheta,64,1098_4Hz.avi,dar11_oneeighty_4Hz.wav,dar,3,6.75840179999977,0,26,29,64,14,43,2,5,1,4.60354164166667,NaN,2116.2521903,1,NaN,NaN,NaN
26,4,2,AsyncTheta,91,1340_4Hz.avi,orch46_oneeighty_4Hz.wav,orch,3,5.16620899999998,1,26,28,30,91,57,3,1,2,4.60354164166667,NaN,2125.8522663,1,NaN,NaN,NaN
26,5,2,AsyncTheta,23,1330_4Hz.avi,acoustic47_oneeighty_4Hz.wav,acoustic,2,2.21001549999983,0,26,4,58,23,5,3,10,3,4.60354164166667,NaN,2133.1523344,1,NaN,NaN,NaN
26,6,2,AsyncTheta,11,1448_4Hz.avi,choir36_oneeighty_4Hz.wav,choir,3,8.36401380000007,0,26,52,11,69,12,2,9,2,4.60354164166667,NaN,2138.4856869,1,NaN,NaN,NaN
26,7,2,AsyncTheta,69,1216_4Hz.avi,choir32_oneeighty_4Hz.wav,choir,1,4.22930140000017,0,26,12,11,69,52,3,16,2,4.60354164166667,NaN,2149.4023951,1,NaN,NaN,NaN
26,8,2,AsyncTheta,58,1323_4Hz.avi,acoustic29_oneeighty_4Hz.wav,acoustic,2,6.36374909999995,0,26,23,5,4,58,4,3,3,4.60354164166667,NaN,2156.7357285,1,NaN,NaN,NaN
26,9,2,AsyncTheta,57,1309_4Hz.avi,orch7_oneeighty_4Hz.wav,orch,1,5.11554130000013,0,26,28,57,30,91,2,6,4,4.60354164166667,NaN,2165.0524702,1,NaN,NaN,NaN
26,10,2,AsyncTheta,5,1381_4Hz.avi,acoustic1_oneeighty_4Hz.wav,acoustic,3,3.7841641,0,26,5,4,23,58,1,8,2,4.60354164166667,NaN,2172.0525224,1,NaN,NaN,NaN
26,11,2,AsyncTheta,12,1077_4Hz.avi,choir18_oneeighty_4Hz.wav,choir,3,5.0996783999999,1,26,52,11,12,69,3,7,4,4.60354164166667,NaN,2177.735857,1,NaN,NaN,NaN
26,12,2,AsyncTheta,43,1141_4Hz.avi,dar13_oneeighty_4Hz.wav,dar,1,3.50310089999994,0,26,64,14,29,43,4,15,4,4.60354164166667,NaN,2185.0358888,1,NaN,NaN,NaN
26,13,2,AsyncTheta,30,1016_4Hz.avi,orch14_oneeighty_4Hz.wav,orch,1,3.20393990000002,0,26,91,30,57,28,2,4,2,4.60354164166667,NaN,2191.3859375,1,NaN,NaN,NaN
26,14,2,AsyncTheta,14,1416_4Hz.avi,dar1_oneeighty_4Hz.wav,dar,3,3.84095380000008,1,26,29,43,14,64,3,11,2,4.60354164166667,NaN,2197.2359274,1,NaN,NaN,NaN
26,15,2,AsyncTheta,52,1387_4Hz.avi,choir2_oneeighty_4Hz.wav,choir,2,7.11323039999979,0,26,12,11,52,69,3,13,1,4.60354164166667,NaN,2203.6026593,1,NaN,NaN,NaN
26,16,2,AsyncTheta,28,1148_4Hz.avi,orch19_oneeighty_4Hz.wav,orch,3,3.21279230000027,0,26,57,28,30,91,2,12,1,4.60354164166667,NaN,2214.0693416,1,NaN,NaN,NaN
26,1,3,SyncTheta,177,1283_4Hz.avi,ep38_zero_4Hz.wav,ep,3,4.01827790000016,1,26,189,166,177,150,3,16,4,4.53939130333333,NaN,2378.2701503,1,NaN,NaN,NaN
26,2,3,SyncTheta,131,1366_4Hz.avi,synth34_zero_4Hz.wav,synth,3,5.07968489999985,1,26,163,135,131,186,3,5,3,4.53939130333333,NaN,2384.5368699,1,NaN,NaN,NaN
26,3,3,SyncTheta,186,1031_4Hz.avi,synth7_zero_4Hz.wav,synth,2,2.67939260000003,0,26,131,135,186,163,3,8,2,4.53939130333333,NaN,2392.1202427,1,NaN,NaN,NaN
26,4,3,SyncTheta,167,1177_4Hz.avi,willow24_zero_4Hz.wav,willow,1,3.58524569999963,0,26,178,167,152,153,2,1,4,4.53939130333333,NaN,2397.5869409,1,NaN,NaN,NaN
26,5,3,SyncTheta,189,1051_4Hz.avi,ep14_zero_4Hz.wav,ep,2,8.91329270000006,0,26,189,150,166,177,1,13,4,4.53939130333333,NaN,2404.4369721,1,NaN,NaN,NaN
26,6,3,SyncTheta,168,1204_4Hz.avi,guitar36_zero_4Hz.wav,guitar,3,5.63912389999996,1,26,164,185,168,179,3,9,4,4.53939130333333,NaN,2416.3203636,1,NaN,NaN,NaN
26,7,3,SyncTheta,179,1186_4Hz.avi,guitar30_zero_4Hz.wav,guitar,3,5.43208550000008,1,26,185,164,179,168,3,12,2,4.53939130333333,NaN,2424.1537372,1,NaN,NaN,NaN
26,8,3,SyncTheta,166,1227_4Hz.avi,ep5_zero_4Hz.wav,ep,3,5.61216259999992,0,26,177,150,189,166,4,4,5,4.53939130333333,NaN,2431.0037714,1,NaN,NaN,NaN
26,9,3,SyncTheta,153,1157_4Hz.avi,willow1_zero_4Hz.wav,willow,1,3.73404299999993,0,26,152,178,153,167,3,3,3,4.53939130333333,NaN,2439.6037838,1,NaN,NaN,NaN
26,10,3,SyncTheta,150,1394_4Hz.avi,ep11_zero_4Hz.wav,ep,2,6.95959410000023,0,26,189,177,166,150,4,7,3,4.53939130333333,NaN,2445.1538637,1,NaN,NaN,NaN
26,11,3,SyncTheta,164,1087_4Hz.avi,guitar17_zero_4Hz.wav,guitar,2,3.51537659999985,0,26,168,185,179,164,4,6,2,4.53939130333333,NaN,2453.8038498,1,NaN,NaN,NaN
26,12,3,SyncTheta,163,1441_4Hz.avi,synth27_zero_4Hz.wav,synth,1,3.73884269999962,1,26,163,135,186,131,1,15,1,4.53939130333333,NaN,2460.1705771,1,NaN,NaN,NaN
26,13,3,SyncTheta,152,1445_4Hz.avi,willow2_zero_4Hz.wav,willow,4,4.4441796000001,0,26,152,178,167,153,1,2,2,4.53939130333333,NaN,2465.3039546,1,NaN,NaN,NaN
26,14,3,SyncTheta,135,1154_4Hz.avi,synth38_zero_4Hz.wav,synth,1,4.52437169999985,1,26,135,131,186,163,1,14,2,4.53939130333333,NaN,2472.5706402,1,NaN,NaN,NaN
26,15,3,SyncTheta,185,1131_4Hz.avi,guitar45_zero_4Hz.wav,guitar,4,3.01257329999999,1,26,168,179,164,185,4,10,4,4.53939130333333,NaN,2480.3873441,1,NaN,NaN,NaN
26,16,3,SyncTheta,178,1057_4Hz.avi,willow9_zero_4Hz.wav,willow,3,4.91173339999978,1,26,152,167,178,153,3,11,3,4.53939130333333,NaN,2484.83734,1,NaN,NaN,NaN
26,1,4,SyncDelta,148,1121_1.7Hz.avi,acoustic26_zero_1.7Hz.wav,acoustic,1,4.4561176000002,0,26,96,148,169,175,2,16,4,4.70255195666667,NaN,2654.8048768,1,NaN,NaN,NaN
26,2,4,SyncDelta,114,1322_1.7Hz.avi,dar14_zero_1.7Hz.wav,dar,1,5.28861080000024,0,26,187,154,162,114,4,1,1,4.70255195666667,NaN,2661.704899,1,NaN,NaN,NaN
26,3,4,SyncDelta,187,1164_1.7Hz.avi,dar12_zero_1.7Hz.wav,dar,4,7.64835029999995,0,26,154,162,187,114,3,2,3,4.70255195666667,NaN,2669.6382868,1,NaN,NaN,NaN
26,4,4,SyncDelta,137,1303_1.7Hz.avi,orch10_zero_1.7Hz.wav,orch,3,6.1257141000001,0,26,165,174,188,137,4,3,2,4.70255195666667,NaN,2679.9549935,1,NaN,NaN,NaN
26,5,4,SyncDelta,169,1083_1.7Hz.avi,acoustic43_zero_1.7Hz.wav,acoustic,4,3.72507219999989,0,26,169,96,175,148,1,7,3,4.70255195666667,NaN,2687.9383628,1,NaN,NaN,NaN
26,6,4,SyncDelta,88,1191_1.7Hz.avi,choir20_zero_1.7Hz.wav,choir,2,5.48258020000003,0,26,181,159,160,88,4,13,4,4.70255195666667,NaN,2693.9216939,1,NaN,NaN,NaN
26,7,4,SyncDelta,159,1091_1.7Hz.avi,choir8_zero_1.7Hz.wav,choir,2,3.01092930000004,1,26,160,159,88,181,2,15,2,4.70255195666667,NaN,2700.9384264,1,NaN,NaN,NaN
26,8,4,SyncDelta,175,1103_1.7Hz.avi,acoustic10_zero_1.7Hz.wav,acoustic,2,4.40860609999982,0,26,96,148,169,175,4,4,4,4.70255195666667,NaN,2706.6051769,1,NaN,NaN,NaN
26,9,4,SyncDelta,174,1119_1.7Hz.avi,orch45_zero_1.7Hz.wav,orch,1,6.24970660000008,0,26,165,188,137,174,4,11,3,4.70255195666667,NaN,2714.1718461,1,NaN,NaN,NaN
26,10,4,SyncDelta,96,1027_1.7Hz.avi,acoustic40_zero_1.7Hz.wav,acoustic,3,6.76639179999984,0,26,169,175,148,96,4,5,2,4.70255195666667,NaN,2722.5885054,1,NaN,NaN,NaN
26,11,4,SyncDelta,160,1421_1.7Hz.avi,choir13_zero_1.7Hz.wav,choir,4,5.70606459999999,0,26,159,160,88,181,2,8,2,4.70255195666667,NaN,2731.2552384,1,NaN,NaN,NaN
26,12,4,SyncDelta,162,1358_1.7Hz.avi,dar7_zero_1.7Hz.wav,dar,4,5.52469930000007,1,26,187,154,114,162,4,10,2,4.70255195666667,NaN,2738.4219143,1,NaN,NaN,NaN
26,13,4,SyncDelta,165,1410_1.7Hz.avi,orch43_zero_1.7Hz.wav,orch,1,4.02010940000036,0,26,137,165,188,174,2,9,1,4.70255195666667,NaN,2746.4886257,1,NaN,NaN,NaN
26,14,4,SyncDelta,154,1074_1.7Hz.avi,dar5_zero_1.7Hz.wav,dar,1,3.51179739999998,1,26,154,114,162,187,1,6,2,4.70255195666667,NaN,2753.4886524,1,NaN,NaN,NaN
26,15,4,SyncDelta,181,1168_1.7Hz.avi,choir1_zero_1.7Hz.wav,choir,3,4.5245417000001,0,26,159,181,88,160,2,14,4,4.70255195666667,NaN,2759.2053553,1,NaN,NaN,NaN
26,16,4,SyncDelta,188,1036_1.7Hz.avi,orch26_zero_1.7Hz.wav,orch,1,5.29860139999982,0,26,165,137,188,174,3,12,2,4.70255195666667,NaN,2766.6887154,1,NaN,NaN,NaN
26,1,5,AsyncTheta,47,1292_4Hz.avi,acoustic28_oneeighty_4Hz.wav,acoustic,2,8.33773939999992,0,26,9,60,47,21,3,16,3,5.25536232,NaN,3031.489977,2,NaN,NaN,NaN
26,2,5,AsyncTheta,31,1404_4Hz.avi,dar8_oneeighty_4Hz.wav,dar,4,3.2582051000004,1,26,40,56,80,31,4,5,4,5.25536232,NaN,3042.2066628,2,NaN,NaN,NaN
26,3,5,AsyncTheta,56,1063_4Hz.avi,dar16_oneeighty_4Hz.wav,dar,1,4.3373259,0,26,40,80,31,56,4,7,1,5.25536232,NaN,3047.6401013,2,NaN,NaN,NaN
26,4,5,AsyncTheta,85,1383_4Hz.avi,orch23_oneeighty_4Hz.wav,orch,1,4.27548269999988,0,26,42,85,102,33,2,1,3,5.25536232,NaN,3055.3234212,2,NaN,NaN,NaN
26,5,5,AsyncTheta,9,1054_4Hz.avi,acoustic44_oneeighty_4Hz.wav,acoustic,1,3.91495609999993,1,26,9,60,47,21,1,15,5,5.25536232,NaN,3062.4234539,2,NaN,NaN,NaN
26,6,5,AsyncTheta,13,1201_4Hz.avi,choir7_oneeighty_4Hz.wav,choir,2,4.54949609999994,1,26,68,13,38,72,2,6,2,5.25536232,NaN,3069.1901833,2,NaN,NaN,NaN
26,7,5,AsyncTheta,38,1184_4Hz.avi,choir33_oneeighty_4Hz.wav,choir,4,6.36052719999998,0,26,38,13,68,72,1,13,2,5.25536232,NaN,3076.6235484,2,NaN,NaN,NaN
26,8,5,AsyncTheta,60,1249_4Hz.avi,acoustic20_oneeighty_4Hz.wav,acoustic,2,4.75504090000004,0,26,9,47,60,21,3,4,3,5.25536232,NaN,3086.2402027,2,NaN,NaN,NaN
26,9,5,AsyncTheta,33,1136_4Hz.avi,orch38_oneeighty_4Hz.wav,orch,1,4.32597679999981,1,26,33,102,42,85,1,11,4,5.25536232,NaN,3094.2735787,2,NaN,NaN,NaN
26,10,5,AsyncTheta,21,1112_4Hz.avi,acoustic32_oneeighty_4Hz.wav,acoustic,2,6.22198350000008,1,26,60,21,47,9,2,8,4,5.25536232,NaN,3101.2903422,2,NaN,NaN,NaN
26,11,5,AsyncTheta,72,1097_4Hz.avi,choir29_oneeighty_4Hz.wav,choir,3,3.63439369999969,0,26,13,38,68,72,4,2,4,5.25536232,NaN,3109.8403394,2,NaN,NaN,NaN
26,12,5,AsyncTheta,40,1239_4Hz.avi,dar6_oneeighty_4Hz.wav,dar,3,5.79361400000016,0,26,56,31,80,40,4,10,3,5.25536232,NaN,3116.4737175,2,NaN,NaN,NaN
26,13,5,AsyncTheta,42,1339_4Hz.avi,orch31_oneeighty_4Hz.wav,orch,1,5.04410289999987,0,26,85,33,42,102,3,3,3,5.25536232,NaN,3123.8904332,2,NaN,NaN,NaN
26,14,5,AsyncTheta,80,1082_4Hz.avi,dar15_oneeighty_4Hz.wav,dar,4,4.73358869999993,1,26,56,31,40,80,4,9,2,5.25536232,NaN,3132.1404612,2,NaN,NaN,NaN
26,15,5,AsyncTheta,68,1023_4Hz.avi,choir3_oneeighty_4Hz.wav,choir,1,5.68814609999981,1,26,68,72,38,13,1,12,2,5.25536232,NaN,3139.9238046,2,NaN,NaN,NaN
26,16,5,AsyncTheta,102,1012_4Hz.avi,orch18_oneeighty_4Hz.wav,orch,3,4.85824580000008,1,26,85,42,102,33,3,14,3,5.25536232,NaN,3147.540539,2,NaN,NaN,NaN
26,1,6,NoFlicker,65,1013_half_amp.avi,ep22_half_amp.wav,ep,3,5.67120509999995,0,26,99,16,101,65,4,15,3,4.55643794,NaN,3302.0579621,2,NaN,NaN,NaN
26,2,6,NoFlicker,35,1039_half_amp.avi,synth5_half_amp.wav,synth,3,10.3636436000002,1,26,95,100,35,70,3,5,2,4.55643794,NaN,3309.9913515,2,NaN,NaN,NaN
26,3,6,NoFlicker,100,1107_half_amp.avi,synth23_half_amp.wav,synth,1,3.63069339999993,1,26,100,35,95,70,1,6,3,4.55643794,NaN,3322.8913935,2,NaN,NaN,NaN
26,4,6,NoFlicker,22,1212_half_amp.avi,willow20_half_amp.wav,willow,1,4.71189179999965,0,26,92,94,55,22,4,1,3,4.55643794,NaN,3327.9914462,2,NaN,NaN,NaN
26,5,6,NoFlicker,101,1295_half_amp.avi,ep40_half_amp.wav,ep,3,9.68503910000027,0,26,16,65,99,101,4,14,4,4.55643794,NaN,3334.441457,2,NaN,NaN,NaN
26,6,6,NoFlicker,7,1017_half_amp.avi,guitar47_half_amp.wav,guitar,2,2.85952399999996,1,26,90,7,67,84,2,8,4,4.55643794,NaN,3345.7248391,2,NaN,NaN,NaN
26,7,6,NoFlicker,84,1294_half_amp.avi,guitar6_half_amp.wav,guitar,3,5.1253555000003,1,26,67,7,84,90,3,16,2,4.55643794,NaN,3351.1248425,2,NaN,NaN,NaN
26,8,6,NoFlicker,16,1442_half_amp.avi,ep34_half_amp.wav,ep,2,4.4648014000004,0,26,99,65,16,101,3,2,1,4.55643794,NaN,3358.8082391,2,NaN,NaN,NaN
26,9,6,NoFlicker,92,1030_half_amp.avi,willow23_half_amp.wav,willow,3,5.18416969999998,0,26,55,22,94,92,4,7,1,4.55643794,NaN,3366.6582774,2,NaN,NaN,NaN
26,10,6,NoFlicker,99,1173_half_amp.avi,ep6_half_amp.wav,ep,1,4.64891200000011,0,26,16,101,65,99,4,12,3,4.55643794,NaN,3374.8749818,2,NaN,NaN,NaN
26,11,6,NoFlicker,67,1310_half_amp.avi,guitar21_half_amp.wav,guitar,4,7.76090430000022,1,26,7,84,90,67,4,3,4,4.55643794,NaN,3382.5583431,2,NaN,NaN,NaN
26,12,6,NoFlicker,70,1093_half_amp.avi,synth6_half_amp.wav,synth,2,3.89747779999971,0,26,35,95,100,70,4,10,3,4.55643794,NaN,3393.0917407,2,NaN,NaN,NaN
26,13,6,NoFlicker,94,1109_half_amp.avi,willow6_half_amp.wav,willow,1,5.40428079999992,0,26,92,22,94,55,3,4,3,4.55643794,NaN,3399.4084127,2,NaN,NaN,NaN
26,14,6,NoFlicker,95,1359_half_amp.avi,synth33_half_amp.wav,synth,3,5.64683879999984,0,26,100,70,35,95,4,9,2,4.55643794,NaN,3406.5751165,2,NaN,NaN,NaN
26,15,6,NoFlicker,90,1273_half_amp.avi,guitar23_half_amp.wav,guitar,2,5.33051549999982,1,26,67,90,84,7,2,13,2,4.55643794,NaN,3414.4752192,2,NaN,NaN,NaN
26,16,6,NoFlicker,55,1044_half_amp.avi,willow4_half_amp.wav,willow,1,4.6389608999998,1,26,55,94,92,22,1,11,3,4.55643794,NaN,3421.2252145,2,NaN,NaN,NaN
26,1,7,SyncDelta,79,1071_1.7Hz.avi,acoustic17_zero_1.7Hz.wav,acoustic,2,4.27349860000004,0,26,113,107,79,105,3,9,2,4.56550044666667,NaN,3587.6426801,2,NaN,NaN,NaN
26,2,7,SyncDelta,122,1289_1.7Hz.avi,dar3_zero_1.7Hz.wav,dar,3,5.38047429999961,0,26,122,82,136,126,1,4,3,4.56550044666667,NaN,3594.476046,2,NaN,NaN,NaN
26,3,7,SyncDelta,126,1298_1.7Hz.avi,dar9_zero_1.7Hz.wav,dar,2,7.16345330000013,1,26,82,126,122,136,2,6,1,4.56550044666667,NaN,3602.6761189,2,NaN,NaN,NaN
26,4,7,SyncDelta,145,1352_1.7Hz.avi,orch39_zero_1.7Hz.wav,orch,4,4.95220829999971,0,26,143,110,145,142,3,1,2,4.56550044666667,NaN,3612.0595234,2,NaN,NaN,NaN
26,5,7,SyncDelta,113,1037_1.7Hz.avi,acoustic23_zero_1.7Hz.wav,acoustic,3,5.43262350000032,1,26,79,107,113,105,3,7,4,4.56550044666667,NaN,3619.9261942,2,NaN,NaN,NaN
26,6,7,SyncDelta,124,1183_1.7Hz.avi,choir24_zero_1.7Hz.wav,choir,1,4.35692040000004,0,26,121,98,124,76,3,10,2,4.56550044666667,NaN,3628.6095838,2,NaN,NaN,NaN
26,7,7,SyncDelta,76,1293_1.7Hz.avi,choir23_zero_1.7Hz.wav,choir,3,3.65266659999998,0,26,76,124,121,98,1,13,2,4.56550044666667,NaN,3635.0596456,2,NaN,NaN,NaN
26,8,7,SyncDelta,107,1265_1.7Hz.avi,acoustic16_zero_1.7Hz.wav,acoustic,1,2.96955720000005,1,26,107,105,79,113,1,2,1,4.56550044666667,NaN,3640.3262979,2,NaN,NaN,NaN
26,9,7,SyncDelta,142,1155_1.7Hz.avi,orch9_zero_1.7Hz.wav,orch,3,3.63063749999992,0,26,142,143,110,145,1,15,1,4.56550044666667,NaN,3645.9596659,2,NaN,NaN,NaN
26,10,7,SyncDelta,105,1003_1.7Hz.avi,acoustic6_zero_1.7Hz.wav,acoustic,2,5.28672899999992,0,26,105,79,113,107,1,3,3,4.56550044666667,NaN,3651.0930476,2,NaN,NaN,NaN
26,11,7,SyncDelta,98,1014_1.7Hz.avi,choir41_zero_1.7Hz.wav,choir,3,4.67487609999989,0,26,124,98,76,121,2,5,3,4.56550044666667,NaN,3659.6430602,2,NaN,NaN,NaN
26,12,7,SyncDelta,136,1175_1.7Hz.avi,dar4_zero_1.7Hz.wav,dar,2,3.85950329999969,0,26,82,122,136,126,3,14,3,4.56550044666667,NaN,3667.0764051,2,NaN,NaN,NaN
26,13,7,SyncDelta,110,1443_1.7Hz.avi,orch3_zero_1.7Hz.wav,orch,3,6.82508480000024,0,26,110,143,145,142,1,8,4,4.56550044666667,NaN,3672.776474,2,NaN,NaN,NaN
26,14,7,SyncDelta,82,1449_1.7Hz.avi,dar17_zero_1.7Hz.wav,dar,2,4.51202550000016,1,26,122,82,126,136,2,11,3,4.56550044666667,NaN,3681.3098357,2,NaN,NaN,NaN
26,15,7,SyncDelta,121,1354_1.7Hz.avi,choir22_zero_1.7Hz.wav,choir,2,4.89948800000002,0,26,76,98,124,121,4,12,2,4.56550044666667,NaN,3689.0098872,2,NaN,NaN,NaN
26,16,7,SyncDelta,143,1127_1.7Hz.avi,orch11_zero_1.7Hz.wav,orch,1,3.43519030000016,1,26,143,142,145,110,1,16,2,4.56550044666667,NaN,3696.4765754,2,NaN,NaN,NaN
26,1,8,SyncTheta,123,1067_4Hz.avi,ep37_zero_4Hz.wav,ep,4,5.04851539999981,1,26,138,117,173,123,4,15,4,4.33597964833333,NaN,3852.8940484,2,NaN,NaN,NaN
26,2,8,SyncTheta,111,1390_4Hz.avi,synth3_zero_4Hz.wav,synth,4,3.37422769999966,1,26,125,128,140,111,4,3,4,4.33597964833333,NaN,3860.2606902,2,NaN,NaN,NaN
26,3,8,SyncTheta,125,1050_4Hz.avi,synth36_zero_4Hz.wav,synth,3,4.59347230000003,1,26,140,128,125,111,3,7,4,4.33597964833333,NaN,3866.427415,2,NaN,NaN,NaN
26,4,8,SyncTheta,130,1081_4Hz.avi,willow5_zero_4Hz.wav,willow,2,4.40094009999984,0,26,156,118,119,130,4,2,2,4.33597964833333,NaN,3872.4107785,2,NaN,NaN,NaN
26,5,8,SyncTheta,173,1348_4Hz.avi,ep31_zero_4Hz.wav,ep,1,4.09726560000036,0,26,117,138,123,173,4,11,3,4.33597964833333,NaN,3878.3441224,2,NaN,NaN,NaN
26,6,8,SyncTheta,115,1370_4Hz.avi,guitar9_zero_4Hz.wav,guitar,3,5.64637149999999,1,26,112,151,115,170,3,5,1,4.33597964833333,NaN,3883.8608658,2,NaN,NaN,NaN
26,7,8,SyncTheta,151,1259_4Hz.avi,guitar43_zero_4Hz.wav,guitar,1,3.28267689999984,0,26,170,115,112,151,4,16,2,4.33597964833333,NaN,3891.6775096,2,NaN,NaN,NaN
26,8,8,SyncTheta,138,1149_4Hz.avi,ep2_zero_4Hz.wav,ep,3,3.2793099999999,0,26,138,117,123,173,1,1,2,4.33597964833333,NaN,3896.6608987,2,NaN,NaN,NaN
26,9,8,SyncTheta,156,1060_4Hz.avi,willow7_zero_4Hz.wav,willow,2,4.70990470000015,0,26,156,119,118,130,1,13,4,4.33597964833333,NaN,3902.4108985,2,NaN,NaN,NaN
26,10,8,SyncTheta,117,1144_4Hz.avi,ep39_zero_4Hz.wav,ep,4,6.41758899999968,0,26,138,123,117,173,3,8,2,4.33597964833333,NaN,3909.1443253,2,NaN,NaN,NaN
26,11,8,SyncTheta,112,1388_4Hz.avi,guitar39_zero_4Hz.wav,guitar,1,4.94534560000011,1,26,112,170,115,151,1,4,4,4.33597964833333,NaN,3918.8276954,2,NaN,NaN,NaN
26,12,8,SyncTheta,140,1270_4Hz.avi,synth17_zero_4Hz.wav,synth,4,5.60339209999984,1,26,125,111,128,140,4,12,2,4.33597964833333,NaN,3927.127703,2,NaN,NaN,NaN
26,13,8,SyncTheta,119,1189_4Hz.avi,willow11_zero_4Hz.wav,willow,2,5.92541279999978,0,26,118,156,130,119,4,9,4,4.33597964833333,NaN,3934.2611089,2,NaN,NaN,NaN
26,14,8,SyncTheta,128,1269_4Hz.avi,synth14_zero_4Hz.wav,synth,3,4.91416919999983,0,26,111,140,125,128,4,10,2,4.33597964833333,NaN,3941.9777862,2,NaN,NaN,NaN
26,15,8,SyncTheta,170,1062_4Hz.avi,guitar3_zero_4Hz.wav,guitar,4,4.90678269999989,1,26,115,112,151,170,4,6,4,4.33597964833333,NaN,3949.3111816,2,NaN,NaN,NaN
26,16,8,SyncTheta,118,1020_4Hz.avi,willow22_zero_4Hz.wav,willow,1,3.76320900000019,0,26,119,156,118,130,3,14,1,4.33597964833333,NaN,3956.4278854,2,NaN,NaN,NaN
26,1,9,AsyncTheta,39,1061_4Hz.avi,acoustic11_oneeighty_4Hz.wav,acoustic,3,3.68556639999952,1,26,20,44,39,1,3,13,4,4.744988105,18.9538755883333,4210.6623423,3,NaN,NaN,NaN
26,2,9,AsyncTheta,45,1203_4Hz.avi,dar2_oneeighty_4Hz.wav,dar,3,4.00851449999936,1,26,49,34,45,2,3,1,4,4.744988105,18.9538755883333,4216.2291308,3,NaN,NaN,NaN
26,3,9,AsyncTheta,34,1319_4Hz.avi,dar22_oneeighty_4Hz.wav,dar,4,5.92806719999953,1,26,49,45,2,34,4,3,2,4.744988105,18.9538755883333,4223.2624265,3,NaN,NaN,NaN
26,4,9,AsyncTheta,17,1162_4Hz.avi,orch1_oneeighty_4Hz.wav,orch,4,6.91936820000046,1,26,36,81,74,17,4,6,2,4.744988105,18.9538755883333,4231.3791014,3,NaN,NaN,NaN
26,5,9,AsyncTheta,44,1254_4Hz.avi,acoustic48_oneeighty_4Hz.wav,acoustic,2,3.67408249999971,0,26,44,20,1,39,1,10,3,4.744988105,18.9538755883333,4240.8958494,3,NaN,NaN,NaN
26,6,9,AsyncTheta,10,1179_4Hz.avi,choir4_oneeighty_4Hz.wav,choir,1,3.49136089999956,1,26,10,19,63,62,1,5,4,4.744988105,18.9538755883333,4247.1458484,3,NaN,NaN,NaN
26,7,9,AsyncTheta,19,1247_4Hz.avi,choir38_oneeighty_4Hz.wav,choir,1,4.14064419999977,0,26,62,19,10,63,2,16,1,4.744988105,18.9538755883333,4252.0292078,3,NaN,NaN,NaN
26,8,9,AsyncTheta,1,1064_4Hz.avi,acoustic12_oneeighty_4Hz.wav,acoustic,3,5.29182639999999,1,26,44,39,1,20,3,2,4,4.744988105,18.9538755883333,4258.7125955,3,NaN,NaN,NaN
26,9,9,AsyncTheta,81,1444_4Hz.avi,orch4_oneeighty_4Hz.wav,orch,3,3.75442759999987,0,26,81,74,36,17,1,12,3,4.744988105,18.9538755883333,4266.3792732,3,NaN,NaN,NaN
26,10,9,AsyncTheta,20,1236_4Hz.avi,acoustic25_oneeighty_4Hz.wav,acoustic,2,2.87399459999961,0,26,1,39,44,20,4,8,5,4.744988105,18.9538755883333,4273.462703,3,NaN,NaN,NaN
26,11,9,AsyncTheta,63,1128_4Hz.avi,choir26_oneeighty_4Hz.wav,choir,3,3.54469140000037,1,26,19,10,63,62,3,4,4,4.744988105,18.9538755883333,4278.1460139,3,NaN,NaN,NaN
26,12,9,AsyncTheta,2,1431_4Hz.avi,dar24_oneeighty_4Hz.wav,dar,1,5.16066820000015,1,26,2,45,34,49,1,14,4,4.744988105,18.9538755883333,4284.3127656,3,NaN,NaN,NaN
26,13,9,AsyncTheta,74,1337_4Hz.avi,orch24_oneeighty_4Hz.wav,orch,3,5.73540879999928,0,26,36,17,81,74,4,11,2,4.744988105,18.9538755883333,4291.9627532,3,NaN,NaN,NaN
26,14,9,AsyncTheta,49,1221_4Hz.avi,dar21_oneeighty_4Hz.wav,dar,1,4.97969900000044,0,26,45,2,49,34,3,7,3,4.744988105,18.9538755883333,4299.2627911,3,NaN,NaN,NaN
26,15,9,AsyncTheta,62,1058_4Hz.avi,choir19_oneeighty_4Hz.wav,choir,2,5.06489469999997,0,26,63,19,10,62,4,9,1,4.744988105,18.9538755883333,4306.3628521,3,NaN,NaN,NaN
26,16,9,AsyncTheta,36,1284_4Hz.avi,orch29_oneeighty_4Hz.wav,orch,4,5.69897450000008,0,26,17,36,74,81,2,15,2,4.744988105,18.9538755883333,4313.0628598,3,NaN,NaN,NaN
26,1,10,SyncTheta,176,1405_4Hz.avi,ep46_zero_4Hz.wav,ep,4,4.13346080000065,0,26,180,132,176,144,3,13,1,4.33825170333333,18.9538755883333,4478.296995,3,NaN,NaN,NaN
26,2,10,SyncTheta,184,1052_4Hz.avi,synth40_zero_4Hz.wav,synth,1,2.6419949000001,0,26,155,127,129,184,4,5,2,4.33825170333333,18.9538755883333,4483.997025,3,NaN,NaN,NaN
26,3,10,SyncTheta,127,1411_4Hz.avi,synth28_zero_4Hz.wav,synth,4,4.7737503999997,1,26,184,129,155,127,4,7,2,4.33825170333333,18.9538755883333,4488.6470496,3,NaN,NaN,NaN
26,4,10,SyncTheta,120,1365_4Hz.avi,willow21_zero_4Hz.wav,willow,2,5.79353039999933,0,26,120,157,171,149,1,6,3,4.33825170333333,18.9538755883333,4495.9804443,3,NaN,NaN,NaN
26,5,10,SyncTheta,180,1006_4Hz.avi,ep4_zero_4Hz.wav,ep,1,5.73972219999996,1,26,180,132,144,176,1,12,2,4.33825170333333,18.9538755883333,4504.3971264,3,NaN,NaN,NaN
26,6,10,SyncTheta,161,1433_4Hz.avi,guitar2_zero_4Hz.wav,guitar,3,4.06936120000046,0,26,172,161,183,146,2,4,2,4.33825170333333,18.9538755883333,4512.9305255,3,NaN,NaN,NaN
26,7,10,SyncTheta,172,1350_4Hz.avi,guitar10_zero_4Hz.wav,guitar,2,3.34466810000049,0,26,172,161,183,146,1,15,3,4.33825170333333,18.9538755883333,4518.6972029,3,NaN,NaN,NaN
26,8,10,SyncTheta,144,1255_4Hz.avi,ep28_zero_4Hz.wav,ep,1,3.20980419999978,1,26,144,132,180,176,1,1,2,4.33825170333333,18.9538755883333,4524.5805576,3,NaN,NaN,NaN
26,9,10,SyncTheta,171,1280_4Hz.avi,willow19_zero_4Hz.wav,willow,2,4.33517130000018,0,26,171,120,157,149,1,14,4,4.33825170333333,18.9538755883333,4530.3305951,3,NaN,NaN,NaN
26,10,10,SyncTheta,132,1356_4Hz.avi,ep30_zero_4Hz.wav,ep,1,4.00587809999979,0,26,180,132,176,144,2,3,5,4.33825170333333,18.9538755883333,4536.3306253,3,NaN,NaN,NaN
26,11,10,SyncTheta,183,1374_4Hz.avi,guitar16_zero_4Hz.wav,guitar,1,2.86626729999989,1,26,183,146,161,172,1,2,1,4.33825170333333,18.9538755883333,4543.4139821,3,NaN,NaN,NaN
26,12,10,SyncTheta,155,1042_4Hz.avi,synth10_zero_4Hz.wav,synth,4,4.25557469999967,1,26,127,129,184,155,4,11,3,4.33825170333333,18.9538755883333,4548.6140082,3,NaN,NaN,NaN
26,13,10,SyncTheta,157,1225_4Hz.avi,willow14_zero_4Hz.wav,willow,3,3.9150236000005,0,26,120,171,149,157,4,9,3,4.33825170333333,18.9538755883333,4554.6307048,3,NaN,NaN,NaN
26,14,10,SyncTheta,129,1286_4Hz.avi,synth30_zero_4Hz.wav,synth,2,3.58113089999915,0,26,127,184,155,129,4,8,2,4.33825170333333,18.9538755883333,4560.4973771,3,NaN,NaN,NaN
26,15,10,SyncTheta,146,1005_4Hz.avi,guitar14_zero_4Hz.wav,guitar,3,6.36974740000005,0,26,183,161,172,146,4,10,1,4.33825170333333,18.9538755883333,4566.0974271,3,NaN,NaN,NaN
26,16,10,SyncTheta,149,1200_4Hz.avi,willow8_zero_4Hz.wav,willow,1,4.66891260000011,0,26,171,149,120,157,2,16,4,4.33825170333333,18.9538755883333,4574.5141386,3,NaN,NaN,NaN
26,1,11,NoFlicker,86,1278_half_amp.avi,ep35_half_amp.wav,ep,1,3.98797400000058,1,26,86,26,87,41,1,12,3,4.40724389833333,18.9538755883333,4743.0483067,3,NaN,NaN,NaN
26,2,11,NoFlicker,89,1393_half_amp.avi,synth41_half_amp.wav,synth,2,3.39600580000024,1,26,71,89,54,61,2,3,1,4.40724389833333,18.9538755883333,4748.7149856,3,NaN,NaN,NaN
26,3,11,NoFlicker,71,1076_half_amp.avi,synth21_half_amp.wav,synth,4,3.63506859999961,0,26,61,89,71,54,3,7,2,4.40724389833333,18.9538755883333,4754.1650385,3,NaN,NaN,NaN
26,4,11,NoFlicker,37,1237_half_amp.avi,willow15_half_amp.wav,willow,3,2.38230519999979,1,26,48,66,37,75,3,2,4,4.40724389833333,18.9538755883333,4761.19838,3,NaN,NaN,NaN
26,5,11,NoFlicker,41,1132_half_amp.avi,ep10_half_amp.wav,ep,2,2.77139389999957,1,26,86,41,26,87,2,10,3,4.40724389833333,18.9538755883333,4765.8984294,3,NaN,NaN,NaN
26,6,11,NoFlicker,59,1346_half_amp.avi,guitar33_half_amp.wav,guitar,3,5.66105009999956,0,26,59,77,73,53,1,8,2,4.40724389833333,18.9538755883333,4771.9817435,3,NaN,NaN,NaN
26,7,11,NoFlicker,73,1369_half_amp.avi,guitar19_half_amp.wav,guitar,4,2.79155629999968,0,26,73,53,59,77,1,14,4,4.40724389833333,18.9538755883333,4779.2818003,3,NaN,NaN,NaN
26,8,11,NoFlicker,26,1190_half_amp.avi,ep7_half_amp.wav,ep,3,6.10389829999986,1,26,41,86,26,87,3,1,4,4.40724389833333,18.9538755883333,4785.4984707,3,NaN,NaN,NaN
26,9,11,NoFlicker,48,1021_half_amp.avi,willow12_half_amp.wav,willow,4,4.36329070000011,0,26,48,37,66,75,1,9,3,4.40724389833333,18.9538755883333,4794.1652078,3,NaN,NaN,NaN
26,10,11,NoFlicker,87,1142_half_amp.avi,ep3_half_amp.wav,ep,2,4.60799609999958,0,26,26,41,87,86,3,4,4,4.40724389833333,18.9538755883333,4801.8319085,3,NaN,NaN,NaN
26,11,11,NoFlicker,53,1197_half_amp.avi,guitar46_half_amp.wav,guitar,3,4.73469389999991,0,26,59,77,73,53,4,5,1,4.40724389833333,18.9538755883333,4808.5819419,3,NaN,NaN,NaN
26,12,11,NoFlicker,54,1181_half_amp.avi,synth12_half_amp.wav,synth,4,3.44068470000002,0,26,54,61,89,71,1,16,3,4.40724389833333,18.9538755883333,4815.5153086,3,NaN,NaN,NaN
26,13,11,NoFlicker,75,1040_half_amp.avi,willow17_half_amp.wav,willow,1,3.27260200000001,0,26,37,75,48,66,2,6,3,4.40724389833333,18.9538755883333,4821.1486448,3,NaN,NaN,NaN
26,14,11,NoFlicker,61,1207_half_amp.avi,synth46_half_amp.wav,synth,3,4.56760480000048,0,26,61,54,71,89,1,15,3,4.40724389833333,18.9538755883333,4827.6320596,3,NaN,NaN,NaN
26,15,11,NoFlicker,77,1008_half_amp.avi,guitar42_half_amp.wav,guitar,3,3.41866120000032,1,26,53,73,77,59,3,13,3,4.40724389833333,18.9538755883333,4833.9487125,3,NaN,NaN,NaN
26,16,11,NoFlicker,66,1215_half_amp.avi,willow18_half_amp.wav,willow,4,4.20254759999989,0,26,37,75,66,48,3,11,4,4.40724389833333,18.9538755883333,4839.5820888,3,NaN,NaN,NaN
26,1,12,SyncDelta,83,1139_1.7Hz.avi,acoustic27_zero_1.7Hz.wav,acoustic,4,3.10824890000004,0,26,104,83,190,133,2,15,4,4.64387186333333,18.9538755883333,5012.6496046,3,NaN,NaN,NaN
26,2,12,SyncDelta,191,1314_1.7Hz.avi,dar19_zero_1.7Hz.wav,dar,4,4.20319299999937,1,26,116,103,147,191,4,1,2,4.64387186333333,18.9538755883333,5017.4329623,3,NaN,NaN,NaN
26,3,12,SyncDelta,147,1304_1.7Hz.avi,dar10_zero_1.7Hz.wav,dar,2,4.82471530000021,1,26,116,147,103,191,2,5,1,4.64387186333333,18.9538755883333,5024.6163276,3,NaN,NaN,NaN
26,4,12,SyncDelta,158,1206_1.7Hz.avi,orch6_zero_1.7Hz.wav,orch,3,6.87565770000037,0,26,158,134,192,141,1,3,1,4.64387186333333,18.9538755883333,5031.2497035,3,NaN,NaN,NaN
26,5,12,SyncDelta,104,1111_1.7Hz.avi,acoustic31_zero_1.7Hz.wav,acoustic,4,4.86465609999959,0,26,104,190,83,133,1,13,4,4.64387186333333,18.9538755883333,5040.7497406,3,NaN,NaN,NaN
26,6,12,SyncDelta,139,1192_1.7Hz.avi,choir5_zero_1.7Hz.wav,choir,1,3.4549293,0,26,78,182,139,97,3,9,1,4.64387186333333,18.9538755883333,5048.933139,3,NaN,NaN,NaN
26,7,12,SyncDelta,97,1368_1.7Hz.avi,choir30_zero_1.7Hz.wav,choir,1,5.55754290000004,1,26,97,78,139,182,1,16,3,4.64387186333333,18.9538755883333,5054.3331407,3,NaN,NaN,NaN
26,8,12,SyncDelta,133,1341_1.7Hz.avi,acoustic14_zero_1.7Hz.wav,acoustic,1,7.47499599999992,0,26,83,133,104,190,2,2,4,4.64387186333333,18.9538755883333,5062.8665075,3,NaN,NaN,NaN
26,9,12,SyncDelta,141,1401_1.7Hz.avi,orch12_zero_1.7Hz.wav,orch,4,2.9885478999995,1,26,134,158,192,141,4,11,3,4.64387186333333,18.9538755883333,5073.2998918,3,NaN,NaN,NaN
26,10,12,SyncDelta,190,1427_1.7Hz.avi,acoustic46_zero_1.7Hz.wav,acoustic,3,3.37503469999956,0,26,190,133,104,83,1,8,2,4.64387186333333,18.9538755883333,5078.3165993,3,NaN,NaN,NaN
26,11,12,SyncDelta,78,1301_1.7Hz.avi,choir11_zero_1.7Hz.wav,choir,4,3.06605110000055,1,26,97,139,182,78,4,4,4,4.64387186333333,18.9538755883333,5084.0832855,3,NaN,NaN,NaN
26,12,12,SyncDelta,116,1420_1.7Hz.avi,dar18_zero_1.7Hz.wav,dar,2,3.74346500000047,0,26,103,191,116,147,3,10,2,4.64387186333333,18.9538755883333,5090.2499775,3,NaN,NaN,NaN
26,13,12,SyncDelta,192,1231_1.7Hz.avi,orch32_zero_1.7Hz.wav,orch,4,4.80934330000036,0,26,158,192,141,134,2,7,2,4.64387186333333,18.9538755883333,5097.1166527,3,NaN,NaN,NaN
26,14,12,SyncDelta,103,1084_1.7Hz.avi,dar20_zero_1.7Hz.wav,dar,3,5.37973109999984,1,26,116,147,103,191,3,6,2,4.64387186333333,18.9538755883333,5104.1833618,3,NaN,NaN,NaN
26,15,12,SyncDelta,182,1277_1.7Hz.avi,choir39_zero_1.7Hz.wav,choir,4,4.03539409999939,1,26,139,78,97,182,4,14,3,4.64387186333333,18.9538755883333,5111.4333972,3,NaN,NaN,NaN
26,16,12,SyncDelta,134,1026_1.7Hz.avi,orch16_zero_1.7Hz.wav,orch,3,5.0533534999995,1,26,158,192,134,141,3,12,2,4.64387186333333,18.9538755883333,5117.5167778,3,NaN,NaN,NaN
