ParticipantID,TrialNumber,BlockNumber,Condition,ClipID,VideoFile,SoundFile,SoundCategory,Response,RT,Accuracy,ConditionID,Frame1,Frame2,Frame3,Frame4,CorrectKey,EncodingPosition,Rating,BlockDuration,ExperimentDuration,MemoryTestOnset,RunNumber,Age,Handedness,Sex
4,1,1,SyncDelta,131,1366_1.7Hz.avi,synth34_zero_1.7Hz.wav,synth,1,7.32255180000084,1,4,131,135,184,129,1,11,2,4.91010065666667,NaN,5652.0244508,1,NaN,NaN,NaN
4,2,1,SyncDelta,183,1374_1.7Hz.avi,guitar16_zero_1.7Hz.wav,guitar,4,5.35252839999976,1,4,168,161,164,183,4,4,2,4.91010065666667,NaN,5660.9744971,1,NaN,NaN,NaN
4,3,1,SyncDelta,153,1157_1.7Hz.avi,willow1_zero_1.7Hz.wav,willow,3,6.38235989999976,1,4,149,171,153,152,3,15,5,4.91010065666667,NaN,5667.7911759,1,NaN,NaN,NaN
4,4,1,SyncDelta,171,1280_1.7Hz.avi,willow19_zero_1.7Hz.wav,willow,2,4.32442350000019,1,4,153,171,152,149,2,13,5,4.91010065666667,NaN,5676.2078487,1,NaN,NaN,NaN
4,5,1,SyncDelta,149,1200_1.7Hz.avi,willow8_zero_1.7Hz.wav,willow,2,7.52145800000017,0,4,153,152,149,171,3,12,2,4.91010065666667,NaN,5682.6079172,1,NaN,NaN,NaN
4,6,1,SyncDelta,180,1006_1.7Hz.avi,ep4_zero_1.7Hz.wav,ep,1,5.48079760000019,1,4,180,144,150,166,1,3,4,4.91010065666667,NaN,5692.1745518,1,NaN,NaN,NaN
4,7,1,SyncDelta,168,1204_1.7Hz.avi,guitar36_zero_1.7Hz.wav,guitar,2,5.1061952,1,4,183,168,161,164,2,16,2,4.91010065666667,NaN,5700.7412633,1,NaN,NaN,NaN
4,8,1,SyncDelta,164,1087_1.7Hz.avi,guitar17_zero_1.7Hz.wav,guitar,1,3.82123700000011,1,4,164,183,161,168,1,10,5,4.91010065666667,NaN,5707.9079239,1,NaN,NaN,NaN
4,9,1,SyncDelta,152,1445_1.7Hz.avi,willow2_zero_1.7Hz.wav,willow,3,5.25691439999991,0,4,149,152,153,171,2,2,4,4.91010065666667,NaN,5713.5412982,1,NaN,NaN,NaN
4,10,1,SyncDelta,144,1255_1.7Hz.avi,ep28_zero_1.7Hz.wav,ep,1,11.7092126000007,1,4,144,180,166,150,1,9,2,4.91010065666667,NaN,5720.2413222,1,NaN,NaN,NaN
4,11,1,SyncDelta,184,1052_1.7Hz.avi,synth40_zero_1.7Hz.wav,synth,2,6.57590649999929,1,4,131,184,129,135,2,7,1,4.91010065666667,NaN,5735.2913507,1,NaN,NaN,NaN
4,12,1,SyncDelta,135,1154_1.7Hz.avi,synth38_zero_1.7Hz.wav,synth,2,4.84099190000052,1,4,129,135,184,131,2,8,3,4.91010065666667,NaN,5743.3080099,1,NaN,NaN,NaN
4,13,1,SyncDelta,166,1227_1.7Hz.avi,ep5_zero_1.7Hz.wav,ep,1,3.83565690000069,1,4,166,144,180,150,1,6,3,4.91010065666667,NaN,5751.1580552,1,NaN,NaN,NaN
4,14,1,SyncDelta,129,1286_1.7Hz.avi,synth30_zero_1.7Hz.wav,synth,2,9.57432900000003,0,4,135,131,184,129,4,14,4,4.91010065666667,NaN,5756.3580695,1,NaN,NaN,NaN
4,15,1,SyncDelta,150,1394_1.7Hz.avi,ep11_zero_1.7Hz.wav,ep,4,4.71708599999965,0,4,150,166,180,144,1,1,2,4.91010065666667,NaN,5769.2747392,1,NaN,NaN,NaN
4,16,1,SyncDelta,161,1433_1.7Hz.avi,guitar2_zero_1.7Hz.wav,guitar,3,5.27882139999929,1,4,183,164,161,168,3,5,4,4.91010065666667,NaN,5776.3747589,1,NaN,NaN,NaN
4,1,2,NoFlicker,80,1082_half_amp.avi,dar15_half_amp.wav,dar,1,4.28204379999988,0,4,34,80,2,45,2,7,4,4.94110221833333,NaN,5948.9252505,1,NaN,NaN,NaN
4,2,2,NoFlicker,72,1097_half_amp.avi,choir29_half_amp.wav,choir,2,5.65825940000013,1,4,62,72,19,10,2,1,5,4.94110221833333,NaN,5955.2085742,1,NaN,NaN,NaN
4,3,2,NoFlicker,36,1284_half_amp.avi,orch29_half_amp.wav,orch,4,6.94741830000021,1,4,102,17,74,36,4,16,2,4.94110221833333,NaN,5964.241934,1,NaN,NaN,NaN
4,4,2,NoFlicker,17,1162_half_amp.avi,orch1_half_amp.wav,orch,2,4.68403229999967,0,4,17,36,102,74,1,13,4,4.94110221833333,NaN,5973.7253127,1,NaN,NaN,NaN
4,5,2,NoFlicker,74,1337_half_amp.avi,orch24_half_amp.wav,orch,3,4.91476760000023,1,4,102,36,74,17,3,12,2,4.94110221833333,NaN,5981.2586375,1,NaN,NaN,NaN
4,6,2,NoFlicker,39,1061_half_amp.avi,acoustic11_half_amp.wav,acoustic,4,4.99547410000014,1,4,60,1,20,39,4,9,2,4.94110221833333,NaN,5989.0253523,1,NaN,NaN,NaN
4,7,2,NoFlicker,62,1058_half_amp.avi,choir19_half_amp.wav,choir,3,12.8231252999994,1,4,72,19,62,10,3,8,3,4.94110221833333,NaN,5996.35868,1,NaN,NaN,NaN
4,8,2,NoFlicker,19,1247_half_amp.avi,choir38_half_amp.wav,choir,2,6.97034810000059,1,4,10,19,72,62,2,5,5,4.94110221833333,NaN,6010.5753907,1,NaN,NaN,NaN
4,9,2,NoFlicker,102,1012_half_amp.avi,orch18_half_amp.wav,orch,1,4.13169259999995,0,4,36,17,74,102,4,11,4,4.94110221833333,NaN,6020.5420435,1,NaN,NaN,NaN
4,10,2,NoFlicker,60,1249_half_amp.avi,acoustic20_half_amp.wav,acoustic,1,5.27519699999993,1,4,60,39,1,20,1,14,3,4.94110221833333,NaN,6026.5087493,1,NaN,NaN,NaN
4,11,2,NoFlicker,34,1319_half_amp.avi,dar22_half_amp.wav,dar,1,6.71981190000042,1,4,34,80,45,2,1,3,4,4.94110221833333,NaN,6034.2921172,1,NaN,NaN,NaN
4,12,2,NoFlicker,2,1431_half_amp.avi,dar24_half_amp.wav,dar,2,6.16639060000034,1,4,34,2,80,45,2,6,5,4.94110221833333,NaN,6043.2587906,1,NaN,NaN,NaN
4,13,2,NoFlicker,20,1236_half_amp.avi,acoustic25_half_amp.wav,acoustic,3,3.63461040000038,1,4,1,39,20,60,3,10,4,4.94110221833333,NaN,6051.6421199,1,NaN,NaN,NaN
4,14,2,NoFlicker,45,1203_half_amp.avi,dar2_half_amp.wav,dar,2,4.97690059999968,1,4,80,45,2,34,2,15,3,4.94110221833333,NaN,6057.7588334,1,NaN,NaN,NaN
4,15,2,NoFlicker,1,1064_half_amp.avi,acoustic12_half_amp.wav,acoustic,2,4.59425310000006,0,4,60,39,1,20,3,4,4,4.94110221833333,NaN,6065.2755127,1,NaN,NaN,NaN
4,16,2,NoFlicker,10,1179_half_amp.avi,choir4_half_amp.wav,choir,3,5.54348759999993,1,4,62,19,10,72,3,2,5,4.94110221833333,NaN,6072.7088648,1,NaN,NaN,NaN
4,1,3,SyncTheta,187,1164_4Hz.avi,dar12_zero_4Hz.wav,dar,2,7.49906559999999,0,4,187,162,82,114,1,12,2,4.48183111166667,NaN,6234.9592716,1,NaN,NaN,NaN
4,2,3,SyncTheta,160,1421_4Hz.avi,choir13_zero_4Hz.wav,choir,3,4.96452450000015,0,4,160,88,181,76,1,2,4,4.48183111166667,NaN,6244.926004,1,NaN,NaN,NaN
4,3,3,SyncTheta,110,1443_4Hz.avi,orch3_zero_4Hz.wav,orch,4,3.89902949999941,1,4,174,188,137,110,4,7,3,4.48183111166667,NaN,6252.3259819,1,NaN,NaN,NaN
4,4,3,SyncTheta,137,1303_4Hz.avi,orch10_zero_4Hz.wav,orch,4,5.25434959999984,0,4,110,137,174,188,2,6,3,4.48183111166667,NaN,6258.5426409,1,NaN,NaN,NaN
4,5,3,SyncTheta,174,1119_4Hz.avi,orch45_zero_4Hz.wav,orch,3,6.94589199999973,0,4,174,188,137,110,1,4,1,4.48183111166667,NaN,6265.676045,1,NaN,NaN,NaN
4,6,3,SyncTheta,175,1103_4Hz.avi,acoustic10_zero_4Hz.wav,acoustic,4,6.05142169999999,1,4,169,79,96,175,4,10,4,4.48183111166667,NaN,6275.3926847,1,NaN,NaN,NaN
4,7,3,SyncTheta,76,1293_4Hz.avi,choir23_zero_4Hz.wav,choir,3,3.60056609999992,1,4,88,160,76,181,3,16,1,4.48183111166667,NaN,6282.859368,1,NaN,NaN,NaN
4,8,3,SyncTheta,181,1168_4Hz.avi,choir1_zero_4Hz.wav,choir,4,7.71941509999942,1,4,76,160,88,181,4,14,5,4.48183111166667,NaN,6287.9094075,1,NaN,NaN,NaN
4,9,3,SyncTheta,188,1036_4Hz.avi,orch26_zero_4Hz.wav,orch,2,4.65022379999937,0,4,188,137,174,110,1,1,2,4.48183111166667,NaN,6297.2927612,1,NaN,NaN,NaN
4,10,3,SyncTheta,96,1027_4Hz.avi,acoustic40_zero_4Hz.wav,acoustic,3,3.62751250000019,0,4,169,175,79,96,4,13,1,4.48183111166667,NaN,6304.6927804,1,NaN,NaN,NaN
4,11,3,SyncTheta,162,1358_4Hz.avi,dar7_zero_4Hz.wav,dar,4,4.00443259999975,0,4,82,114,162,187,3,3,3,4.48183111166667,NaN,6310.459462,1,NaN,NaN,NaN
4,12,3,SyncTheta,114,1322_4Hz.avi,dar14_zero_4Hz.wav,dar,1,3.69807760000003,0,4,162,82,187,114,4,9,2,4.48183111166667,NaN,6317.4261258,1,NaN,NaN,NaN
4,13,3,SyncTheta,79,1071_4Hz.avi,acoustic17_zero_4Hz.wav,acoustic,2,4.69459689999985,1,4,169,79,175,96,2,11,4,4.48183111166667,NaN,6324.2928352,1,NaN,NaN,NaN
4,14,3,SyncTheta,82,1449_4Hz.avi,dar17_zero_4Hz.wav,dar,1,3.73055890000069,1,4,82,187,162,114,1,15,4,4.48183111166667,NaN,6330.8428201,1,NaN,NaN,NaN
4,15,3,SyncTheta,169,1083_4Hz.avi,acoustic43_zero_4Hz.wav,acoustic,1,3.67938810000032,1,4,169,79,175,96,1,5,4,4.48183111166667,NaN,6337.3762017,1,NaN,NaN,NaN
4,16,3,SyncTheta,88,1191_4Hz.avi,choir20_zero_4Hz.wav,choir,1,3.90371510000023,0,4,76,88,160,181,2,8,4,4.48183111166667,NaN,6343.3261813,1,NaN,NaN,NaN
4,1,4,AsyncTheta,50,1049_4Hz.avi,synth43_oneeighty_4Hz.wav,synth,3,8.93414949999988,1,4,109,70,50,51,3,12,5,4.88280712333333,NaN,6532.6933279,1,NaN,NaN,NaN
4,2,4,AsyncTheta,93,1046_4Hz.avi,guitar18_oneeighty_4Hz.wav,guitar,4,2.38336619999973,1,4,67,46,15,93,4,6,1,4.88280712333333,NaN,6544.6766931,1,NaN,NaN,NaN
4,3,4,AsyncTheta,108,1415_4Hz.avi,willow3_oneeighty_4Hz.wav,willow,1,4.46504030000051,0,4,55,32,27,108,4,16,3,4.88280712333333,NaN,6550.7433992,1,NaN,NaN,NaN
4,4,4,AsyncTheta,27,1202_4Hz.avi,willow16_oneeighty_4Hz.wav,willow,3,3.8460242000001,0,4,32,27,108,55,2,14,3,4.88280712333333,NaN,6557.3933842,1,NaN,NaN,NaN
4,5,4,AsyncTheta,55,1044_4Hz.avi,willow4_oneeighty_4Hz.wav,willow,2,4.43654079999942,0,4,55,27,32,108,1,4,3,4.88280712333333,NaN,6563.5601236,1,NaN,NaN,NaN
4,6,4,AsyncTheta,25,1094_4Hz.avi,ep15_oneeighty_4Hz.wav,ep,4,4.19309890000022,0,4,25,65,24,106,1,2,4,4.88280712333333,NaN,6571.3601189,1,NaN,NaN,NaN
4,7,4,AsyncTheta,67,1310_4Hz.avi,guitar21_oneeighty_4Hz.wav,guitar,4,4.585239,0,4,67,15,93,46,1,11,4,4.88280712333333,NaN,6577.2101317,1,NaN,NaN,NaN
4,8,4,AsyncTheta,15,1422_4Hz.avi,guitar37_oneeighty_4Hz.wav,guitar,4,5.55186169999979,1,4,67,46,93,15,4,10,2,4.88280712333333,NaN,6583.293452,1,NaN,NaN,NaN
4,9,4,AsyncTheta,32,1360_4Hz.avi,willow10_oneeighty_4Hz.wav,willow,4,5.46966840000005,0,4,32,108,27,55,1,3,2,4.88280712333333,NaN,6591.2101935,1,NaN,NaN,NaN
4,10,4,AsyncTheta,65,1013_4Hz.avi,ep22_oneeighty_4Hz.wav,ep,3,5.66151730000001,0,4,106,65,24,25,2,13,4,4.88280712333333,NaN,6598.6268512,1,NaN,NaN,NaN
4,11,4,AsyncTheta,51,1331_4Hz.avi,synth47_oneeighty_4Hz.wav,synth,4,3.49735299999975,0,4,51,109,50,70,1,5,2,4.88280712333333,NaN,6606.6935378,1,NaN,NaN,NaN
4,12,4,AsyncTheta,109,1299_4Hz.avi,synth18_oneeighty_4Hz.wav,synth,1,4.18682100000024,0,4,51,70,109,50,3,8,3,4.88280712333333,NaN,6611.643521,1,NaN,NaN,NaN
4,13,4,AsyncTheta,106,1113_4Hz.avi,ep29_oneeighty_4Hz.wav,ep,1,3.72934850000001,0,4,25,24,65,106,4,9,2,4.88280712333333,NaN,6617.8269011,1,NaN,NaN,NaN
4,14,4,AsyncTheta,70,1093_4Hz.avi,synth6_oneeighty_4Hz.wav,synth,4,3.87549930000023,0,4,51,70,50,109,2,15,4,4.88280712333333,NaN,6624.1935803,1,NaN,NaN,NaN
4,15,4,AsyncTheta,24,1217_4Hz.avi,ep44_oneeighty_4Hz.wav,ep,1,3.71373370000038,1,4,24,25,106,65,1,1,3,4.88280712333333,NaN,6630.0935924,1,NaN,NaN,NaN
4,16,4,AsyncTheta,46,1210_4Hz.avi,guitar48_oneeighty_4Hz.wav,guitar,2,3.63818579999952,1,4,15,46,67,93,2,7,2,4.88280712333333,NaN,6636.7435868,1,NaN,NaN,NaN
4,1,5,SyncTheta,136,1175_4Hz.avi,dar4_zero_4Hz.wav,dar,1,5.81676879999941,0,4,116,154,136,147,3,10,5,4.96469845333333,NaN,6945.994241,2,NaN,NaN,NaN
4,2,5,SyncTheta,97,1368_4Hz.avi,choir30_zero_4Hz.wav,choir,4,8.37652740000067,0,4,124,139,97,159,3,2,5,4.96469845333333,NaN,6953.4276223,2,NaN,NaN,NaN
4,3,5,SyncTheta,165,1410_4Hz.avi,orch43_zero_4Hz.wav,orch,4,5.04177160000017,0,4,165,145,141,158,1,15,1,4.96469845333333,NaN,6964.3610103,2,NaN,NaN,NaN
4,4,5,SyncTheta,141,1401_4Hz.avi,orch12_zero_4Hz.wav,orch,4,4.5774749000002,0,4,141,145,158,165,1,11,2,4.96469845333333,NaN,6970.7942981,2,NaN,NaN,NaN
4,5,5,SyncTheta,158,1206_4Hz.avi,orch6_zero_4Hz.wav,orch,1,6.3397614000005,0,4,141,165,158,145,3,5,3,4.96469845333333,NaN,6977.8943166,2,NaN,NaN,NaN
4,6,5,SyncTheta,148,1121_4Hz.avi,acoustic26_zero_4Hz.wav,acoustic,2,4.40924559999985,0,4,113,133,104,148,4,6,4,4.96469845333333,NaN,6986.3110563,2,NaN,NaN,NaN
4,7,5,SyncTheta,124,1183_4Hz.avi,choir24_zero_4Hz.wav,choir,3,3.27212830000008,1,4,97,139,124,159,3,13,1,4.96469845333333,NaN,6992.8943615,2,NaN,NaN,NaN
4,8,5,SyncTheta,139,1192_4Hz.avi,choir5_zero_4Hz.wav,choir,3,4.65033569999923,0,4,139,124,159,97,1,12,2,4.96469845333333,NaN,6999.2610344,2,NaN,NaN,NaN
4,9,5,SyncTheta,145,1352_4Hz.avi,orch39_zero_4Hz.wav,orch,2,5.54735770000025,0,4,141,158,165,145,4,1,3,4.96469845333333,NaN,7005.6277236,2,NaN,NaN,NaN
4,10,5,SyncTheta,104,1111_4Hz.avi,acoustic31_zero_4Hz.wav,acoustic,4,4.24707030000081,0,4,104,113,133,148,1,16,4,4.96469845333333,NaN,7013.0944039,2,NaN,NaN,NaN
4,11,5,SyncTheta,154,1074_4Hz.avi,dar5_zero_4Hz.wav,dar,4,4.09436949999963,0,4,154,136,116,147,1,3,4,4.96469845333333,NaN,7019.9777811,2,NaN,NaN,NaN
4,12,5,SyncTheta,116,1420_4Hz.avi,dar18_zero_4Hz.wav,dar,1,3.54943090000052,1,4,116,154,147,136,1,9,4,4.96469845333333,NaN,7025.9277667,2,NaN,NaN,NaN
4,13,5,SyncTheta,133,1341_4Hz.avi,acoustic14_zero_4Hz.wav,acoustic,1,5.67365319999953,0,4,148,113,104,133,4,7,4,4.96469845333333,NaN,7031.6611675,2,NaN,NaN,NaN
4,14,5,SyncTheta,147,1304_4Hz.avi,dar10_zero_4Hz.wav,dar,3,4.18934249999984,1,4,154,136,147,116,3,14,4,4.96469845333333,NaN,7039.7778046,2,NaN,NaN,NaN
4,15,5,SyncTheta,113,1037_4Hz.avi,acoustic23_zero_4Hz.wav,acoustic,1,3.40945250000004,1,4,113,104,133,148,1,4,4,4.96469845333333,NaN,7047.0944868,2,NaN,NaN,NaN
4,16,5,SyncTheta,159,1091_4Hz.avi,choir8_zero_4Hz.wav,choir,2,3.97638890000053,1,4,139,159,97,124,2,8,3,4.96469845333333,NaN,7051.8944911,2,NaN,NaN,NaN
4,1,6,NoFlicker,31,1404_half_amp.avi,dar8_half_amp.wav,dar,1,3.89314650000051,0,4,64,40,14,31,4,13,3,4.42233492166667,NaN,7208.6449397,2,NaN,NaN,NaN
4,2,6,NoFlicker,13,1201_half_amp.avi,choir7_half_amp.wav,choir,3,4.10577890000059,1,4,38,69,13,11,3,2,4,4.42233492166667,NaN,7213.928265,2,NaN,NaN,NaN
4,3,6,NoFlicker,33,1136_half_amp.avi,orch38_half_amp.wav,orch,4,8.32100449999962,1,4,42,28,91,33,4,15,2,4.42233492166667,NaN,7220.5616071,2,NaN,NaN,NaN
4,4,6,NoFlicker,28,1148_half_amp.avi,orch19_half_amp.wav,orch,4,3.35822029999963,1,4,33,91,42,28,4,5,4,4.42233492166667,NaN,7230.9282995,2,NaN,NaN,NaN
4,5,6,NoFlicker,42,1339_half_amp.avi,orch31_half_amp.wav,orch,3,1.96526910000011,1,4,33,28,42,91,3,4,1,4.42233492166667,NaN,7237.0950114,2,NaN,NaN,NaN
4,6,6,NoFlicker,58,1323_half_amp.avi,acoustic29_half_amp.wav,acoustic,4,5.11879339999996,1,4,4,9,21,58,4,10,5,4.42233492166667,NaN,7242.9949826,2,NaN,NaN,NaN
4,7,6,NoFlicker,11,1448_half_amp.avi,choir36_half_amp.wav,choir,1,3.79397909999989,1,4,11,38,69,13,1,12,4,4.42233492166667,NaN,7251.0783293,2,NaN,NaN,NaN
4,8,6,NoFlicker,38,1184_half_amp.avi,choir33_half_amp.wav,choir,3,4.27249739999934,0,4,11,13,69,38,4,8,2,4.42233492166667,NaN,7257.6950334,2,NaN,NaN,NaN
4,9,6,NoFlicker,91,1340_half_amp.avi,orch46_half_amp.wav,orch,3,7.35085900000013,0,4,91,42,28,33,1,1,3,4.42233492166667,NaN,7263.8283911,2,NaN,NaN,NaN
4,10,6,NoFlicker,21,1112_half_amp.avi,acoustic32_half_amp.wav,acoustic,3,5.61932900000011,1,4,4,58,21,9,3,16,3,4.42233492166667,NaN,7273.7117412,2,NaN,NaN,NaN
4,11,6,NoFlicker,64,1098_half_amp.avi,dar11_half_amp.wav,dar,4,8.97851660000015,0,4,14,40,64,31,3,3,3,4.42233492166667,NaN,7282.1450692,2,NaN,NaN,NaN
4,12,6,NoFlicker,14,1416_half_amp.avi,dar1_half_amp.wav,dar,1,5.4034357999999,1,4,14,64,31,40,1,9,1,4.42233492166667,NaN,7292.8618166,2,NaN,NaN,NaN
4,13,6,NoFlicker,4,1167_half_amp.avi,acoustic37_half_amp.wav,acoustic,1,4.64194360000056,0,4,21,4,58,9,2,11,3,4.42233492166667,NaN,7301.0618067,2,NaN,NaN,NaN
4,14,6,NoFlicker,40,1239_half_amp.avi,dar6_half_amp.wav,dar,2,2.32805910000025,1,4,14,40,31,64,2,14,2,4.42233492166667,NaN,7308.2784808,2,NaN,NaN,NaN
4,15,6,NoFlicker,9,1054_half_amp.avi,acoustic44_half_amp.wav,acoustic,4,3.46147680000013,1,4,4,21,58,9,4,7,2,4.42233492166667,NaN,7313.4285578,2,NaN,NaN,NaN
4,16,6,NoFlicker,69,1216_half_amp.avi,choir32_half_amp.wav,choir,1,2.67672709999988,1,4,69,13,38,11,1,6,4,4.42233492166667,NaN,7318.3618904,2,NaN,NaN,NaN
4,1,7,AsyncTheta,54,1181_4Hz.avi,synth12_oneeighty_4Hz.wav,synth,3,4.92003980000027,1,4,35,71,54,8,3,11,4,4.28398618666667,NaN,7474.2955716,2,NaN,NaN,NaN
4,2,7,AsyncTheta,53,1197_4Hz.avi,guitar46_oneeighty_4Hz.wav,guitar,4,3.95446579999953,1,4,3,7,73,53,4,1,2,4.28398618666667,NaN,7481.0622411,2,NaN,NaN,NaN
4,3,7,AsyncTheta,18,1101_4Hz.avi,willow13_oneeighty_4Hz.wav,willow,1,3.69489980000071,0,4,22,18,66,37,2,7,2,4.28398618666667,NaN,7486.9789458,2,NaN,NaN,NaN
4,4,7,AsyncTheta,66,1215_4Hz.avi,willow18_oneeighty_4Hz.wav,willow,3,4.87634589999925,0,4,18,37,22,66,4,6,5,4.28398618666667,NaN,7492.7122869,2,NaN,NaN,NaN
4,5,7,AsyncTheta,37,1237_4Hz.avi,willow15_oneeighty_4Hz.wav,willow,3,4.46928449999996,0,4,18,22,66,37,4,5,4,4.28398618666667,NaN,7498.9956725,2,NaN,NaN,NaN
4,6,7,AsyncTheta,86,1278_4Hz.avi,ep35_oneeighty_4Hz.wav,ep,3,5.1567756000004,0,4,26,16,6,86,4,8,4,4.28398618666667,NaN,7504.8790167,2,NaN,NaN,NaN
4,7,7,AsyncTheta,73,1369_4Hz.avi,guitar19_oneeighty_4Hz.wav,guitar,3,2.9521793999993,1,4,7,53,73,3,3,14,4,4.28398618666667,NaN,7512.8457058,2,NaN,NaN,NaN
4,8,7,AsyncTheta,3,1156_4Hz.avi,guitar31_oneeighty_4Hz.wav,guitar,1,3.14152620000004,1,4,3,73,7,53,1,12,4,4.28398618666667,NaN,7519.0956918,2,NaN,NaN,NaN
4,9,7,AsyncTheta,22,1212_4Hz.avi,willow20_oneeighty_4Hz.wav,willow,1,6.24083659999997,0,4,66,18,37,22,4,2,5,4.28398618666667,NaN,7524.612343,2,NaN,NaN,NaN
4,10,7,AsyncTheta,16,1442_4Hz.avi,ep34_oneeighty_4Hz.wav,ep,3,7.87760270000035,0,4,16,6,26,86,1,16,3,4.28398618666667,NaN,7532.4623864,2,NaN,NaN,NaN
4,11,7,AsyncTheta,35,1039_4Hz.avi,synth5_oneeighty_4Hz.wav,synth,3,4.31303750000006,0,4,54,8,71,35,4,3,2,4.28398618666667,NaN,7541.9290555,2,NaN,NaN,NaN
4,12,7,AsyncTheta,71,1076_4Hz.avi,synth21_oneeighty_4Hz.wav,synth,3,3.92150399999991,0,4,71,54,35,8,1,10,4,4.28398618666667,NaN,7548.4457447,2,NaN,NaN,NaN
4,13,7,AsyncTheta,6,1007_4Hz.avi,ep8_oneeighty_4Hz.wav,ep,3,4.22775730000012,1,4,86,16,6,26,3,13,5,4.28398618666667,NaN,7555.5624296,2,NaN,NaN,NaN
4,14,7,AsyncTheta,8,1252_4Hz.avi,synth25_oneeighty_4Hz.wav,synth,3,4.0681155000002,0,4,8,35,71,54,1,15,5,4.28398618666667,NaN,7562.2458357,2,NaN,NaN,NaN
4,15,7,AsyncTheta,26,1190_4Hz.avi,ep7_oneeighty_4Hz.wav,ep,3,4.07263749999947,0,4,6,86,16,26,4,4,2,4.28398618666667,NaN,7568.3624933,2,NaN,NaN,NaN
4,16,7,AsyncTheta,7,1017_4Hz.avi,guitar47_oneeighty_4Hz.wav,guitar,3,3.84190429999944,1,4,3,53,7,73,3,9,3,4.28398618666667,NaN,7574.6958597,2,NaN,NaN,NaN
4,1,8,SyncDelta,128,1269_1.7Hz.avi,synth14_zero_1.7Hz.wav,synth,1,4.3097228000006,1,4,128,127,125,186,1,9,5,4.109230235,NaN,7724.2628385,2,NaN,NaN,NaN
4,2,8,SyncDelta,151,1259_1.7Hz.avi,guitar43_zero_1.7Hz.wav,guitar,2,3.28404140000021,0,4,115,146,185,151,4,6,2,4.109230235,NaN,7731.2295503,2,NaN,NaN,NaN
4,3,8,SyncDelta,130,1081_1.7Hz.avi,willow5_zero_1.7Hz.wav,willow,4,4.19257070000003,1,4,119,178,120,130,4,16,4,4.109230235,NaN,7736.8128852,2,NaN,NaN,NaN
4,4,8,SyncDelta,178,1057_1.7Hz.avi,willow9_zero_1.7Hz.wav,willow,4,3.32391439999992,0,4,178,120,130,119,1,14,4,4.109230235,NaN,7743.0295832,2,NaN,NaN,NaN
4,5,8,SyncDelta,119,1189_1.7Hz.avi,willow11_zero_1.7Hz.wav,willow,4,3.82358010000007,0,4,178,119,130,120,2,5,5,4.109230235,NaN,7749.3129493,2,NaN,NaN,NaN
4,6,8,SyncDelta,132,1356_1.7Hz.avi,ep30_zero_1.7Hz.wav,ep,4,5.00859589999982,1,4,138,123,189,132,4,4,4,4.109230235,NaN,7755.6796105,2,NaN,NaN,NaN
4,7,8,SyncDelta,146,1005_1.7Hz.avi,guitar14_zero_1.7Hz.wav,guitar,4,3.84910319999926,0,4,146,151,115,185,1,11,2,4.109230235,NaN,7763.4129528,2,NaN,NaN,NaN
4,8,8,SyncDelta,185,1131_1.7Hz.avi,guitar45_zero_1.7Hz.wav,guitar,1,4.05039089999991,1,4,185,146,151,115,1,10,1,4.109230235,NaN,7770.1129871,2,NaN,NaN,NaN
4,9,8,SyncDelta,120,1365_1.7Hz.avi,willow21_zero_1.7Hz.wav,willow,1,5.09286330000032,1,4,120,130,178,119,1,3,4,4.109230235,NaN,7776.3630266,2,NaN,NaN,NaN
4,10,8,SyncDelta,189,1051_1.7Hz.avi,ep14_zero_1.7Hz.wav,ep,3,4.31483119999939,1,4,132,138,189,123,3,13,5,4.109230235,NaN,7783.7630292,2,NaN,NaN,NaN
4,11,8,SyncDelta,127,1411_1.7Hz.avi,synth28_zero_1.7Hz.wav,synth,4,3.31421480000063,0,4,128,127,186,125,2,1,3,4.109230235,NaN,7790.0630286,2,NaN,NaN,NaN
4,12,8,SyncDelta,186,1031_1.7Hz.avi,synth7_zero_1.7Hz.wav,synth,3,3.26029409999956,1,4,128,125,186,127,3,8,4,4.109230235,NaN,7796.4463836,2,NaN,NaN,NaN
4,13,8,SyncDelta,123,1067_1.7Hz.avi,ep37_zero_1.7Hz.wav,ep,1,3.5768822,1,4,123,189,138,132,1,12,4,4.109230235,NaN,7802.7963736,2,NaN,NaN,NaN
4,14,8,SyncDelta,125,1050_1.7Hz.avi,synth36_zero_1.7Hz.wav,synth,3,4.67502880000029,1,4,127,186,125,128,3,15,2,4.109230235,NaN,7809.6130899,2,NaN,NaN,NaN
4,15,8,SyncDelta,138,1149_1.7Hz.avi,ep2_zero_1.7Hz.wav,ep,3,3.91801180000039,0,4,123,189,132,138,4,2,3,4.109230235,NaN,7816.3964577,2,NaN,NaN,NaN
4,16,8,SyncDelta,115,1370_1.7Hz.avi,guitar9_zero_1.7Hz.wav,guitar,4,2.91313929999978,0,4,185,146,115,151,3,7,1,4.109230235,NaN,7822.1631147,2,NaN,NaN,NaN
4,1,9,AsyncTheta,95,1359_4Hz.avi,synth33_oneeighty_4Hz.wav,synth,3,7.67932519999886,0,4,95,61,89,100,1,5,2,4.80316059666667,18.9933395116667,8243.5805022,3,NaN,NaN,NaN
4,2,9,AsyncTheta,84,1294_4Hz.avi,guitar6_oneeighty_4Hz.wav,guitar,2,6.59021939999911,0,4,90,59,84,77,3,3,5,4.80316059666667,18.9933395116667,8253.2805224,3,NaN,NaN,NaN
4,3,9,AsyncTheta,75,1040_4Hz.avi,willow17_oneeighty_4Hz.wav,willow,4,5.25756940000065,1,4,92,48,94,75,4,16,5,4.80316059666667,18.9933395116667,8262.7805732,3,NaN,NaN,NaN
4,4,9,AsyncTheta,92,1030_4Hz.avi,willow23_oneeighty_4Hz.wav,willow,3,5.91273610000098,1,4,48,75,92,94,3,12,4,4.80316059666667,18.9933395116667,8269.9638693,3,NaN,NaN,NaN
4,5,9,AsyncTheta,48,1021_4Hz.avi,willow12_oneeighty_4Hz.wav,willow,3,5.57457280000017,1,4,75,94,48,92,3,10,2,4.80316059666667,18.9933395116667,8278.6305568,3,NaN,NaN,NaN
4,6,9,AsyncTheta,99,1173_4Hz.avi,ep6_oneeighty_4Hz.wav,ep,1,3.8352601000006,0,4,87,101,41,99,4,11,1,4.80316059666667,18.9933395116667,8287.4806306,3,NaN,NaN,NaN
4,7,9,AsyncTheta,77,1008_4Hz.avi,guitar42_oneeighty_4Hz.wav,guitar,1,5.21975770000063,1,4,77,84,90,59,1,15,3,4.80316059666667,18.9933395116667,8292.8473106,3,NaN,NaN,NaN
4,8,9,AsyncTheta,59,1346_4Hz.avi,guitar33_oneeighty_4Hz.wav,guitar,3,5.58725779999986,0,4,77,59,90,84,2,8,4,4.80316059666667,18.9933395116667,8301.2973007,3,NaN,NaN,NaN
4,9,9,AsyncTheta,94,1109_4Hz.avi,willow6_oneeighty_4Hz.wav,willow,1,8.01622950000092,1,4,94,75,48,92,1,9,4,4.80316059666667,18.9933395116667,8309.9472968,3,NaN,NaN,NaN
4,10,9,AsyncTheta,87,1142_4Hz.avi,ep3_oneeighty_4Hz.wav,ep,3,4.1192960999997,0,4,99,41,101,87,4,14,4,4.80316059666667,18.9933395116667,8320.3306924,3,NaN,NaN,NaN
4,11,9,AsyncTheta,89,1393_4Hz.avi,synth41_oneeighty_4Hz.wav,synth,2,5.65496329999951,0,4,95,100,89,61,3,1,3,4.80316059666667,18.9933395116667,8327.7806893,3,NaN,NaN,NaN
4,12,9,AsyncTheta,61,1207_4Hz.avi,synth46_oneeighty_4Hz.wav,synth,3,4.61064520000036,1,4,95,100,61,89,3,2,5,4.80316059666667,18.9933395116667,8335.7140482,3,NaN,NaN,NaN
4,13,9,AsyncTheta,101,1295_4Hz.avi,ep40_oneeighty_4Hz.wav,ep,2,5.24386530000083,0,4,101,41,99,87,1,13,4,4.80316059666667,18.9933395116667,8343.2640464,3,NaN,NaN,NaN
4,14,9,AsyncTheta,100,1107_4Hz.avi,synth23_oneeighty_4Hz.wav,synth,4,3.18446959999892,0,4,89,61,100,95,3,7,2,4.80316059666667,18.9933395116667,8350.730755,3,NaN,NaN,NaN
4,15,9,AsyncTheta,41,1132_4Hz.avi,ep10_oneeighty_4Hz.wav,ep,3,3.79943970000022,0,4,41,99,101,87,1,6,4,4.80316059666667,18.9933395116667,8356.4307397,3,NaN,NaN,NaN
4,16,9,AsyncTheta,90,1273_4Hz.avi,guitar23_oneeighty_4Hz.wav,guitar,3,3.88238799999999,0,4,84,90,59,77,2,4,2,4.80316059666667,18.9933395116667,8363.4641319,3,NaN,NaN,NaN
4,1,10,SyncDelta,140,1270_1.7Hz.avi,synth17_zero_1.7Hz.wav,synth,4,9.67784690000008,0,4,111,140,163,155,2,12,5,4.57041315333333,18.9933395116667,8534.8645127,3,NaN,NaN,NaN
4,2,10,SyncDelta,112,1388_1.7Hz.avi,guitar39_zero_1.7Hz.wav,guitar,1,3.88150829999904,0,4,172,112,170,179,2,1,3,4.57041315333333,18.9933395116667,8546.2645417,3,NaN,NaN,NaN
4,3,10,SyncDelta,118,1020_1.7Hz.avi,willow22_zero_1.7Hz.wav,willow,3,6.33826319999935,0,4,167,156,157,118,4,16,1,4.57041315333333,18.9933395116667,8551.9145561,3,NaN,NaN,NaN
4,4,10,SyncDelta,157,1225_1.7Hz.avi,willow14_zero_1.7Hz.wav,willow,2,4.72008319999986,0,4,118,167,157,156,3,15,2,4.57041315333333,18.9933395116667,8561.1979142,3,NaN,NaN,NaN
4,5,10,SyncDelta,156,1060_1.7Hz.avi,willow7_zero_1.7Hz.wav,willow,3,4.56109540000034,1,4,167,157,156,118,3,7,4,4.57041315333333,18.9933395116667,8569.0812905,3,NaN,NaN,NaN
4,6,10,SyncDelta,177,1283_1.7Hz.avi,ep38_zero_1.7Hz.wav,ep,3,4.64298489999965,1,4,117,176,177,173,3,6,2,4.57041315333333,18.9933395116667,8575.4979459,3,NaN,NaN,NaN
4,7,10,SyncDelta,172,1350_1.7Hz.avi,guitar10_zero_1.7Hz.wav,guitar,4,7.72988319999968,0,4,172,170,112,179,1,9,1,4.57041315333333,18.9933395116667,8581.8980143,3,NaN,NaN,NaN
4,8,10,SyncDelta,179,1186_1.7Hz.avi,guitar30_zero_1.7Hz.wav,guitar,1,3.48474920000081,0,4,112,170,172,179,4,3,4,4.57041315333333,18.9933395116667,8592.7146557,3,NaN,NaN,NaN
4,9,10,SyncDelta,167,1177_1.7Hz.avi,willow24_zero_1.7Hz.wav,willow,3,4.44339600000058,0,4,167,157,156,118,1,4,2,4.57041315333333,18.9933395116667,8597.5980231,3,NaN,NaN,NaN
4,10,10,SyncDelta,176,1405_1.7Hz.avi,ep46_zero_1.7Hz.wav,ep,1,4.20942570000079,0,4,177,176,117,173,2,13,1,4.57041315333333,18.9933395116667,8603.4480403,3,NaN,NaN,NaN
4,11,10,SyncDelta,155,1042_1.7Hz.avi,synth10_zero_1.7Hz.wav,synth,3,2.66631659999985,1,4,111,140,155,163,3,8,3,4.57041315333333,18.9933395116667,8610.2646999,3,NaN,NaN,NaN
4,12,10,SyncDelta,111,1390_1.7Hz.avi,synth3_zero_1.7Hz.wav,synth,4,1.62219929999992,1,4,140,163,155,111,4,10,4,4.57041315333333,18.9933395116667,8615.5314042,3,NaN,NaN,NaN
4,13,10,SyncDelta,173,1348_1.7Hz.avi,ep31_zero_1.7Hz.wav,ep,1,3.57038830000056,1,4,173,176,177,117,1,11,4,4.57041315333333,18.9933395116667,8621.1647227,3,NaN,NaN,NaN
4,14,10,SyncDelta,163,1441_1.7Hz.avi,synth27_zero_1.7Hz.wav,synth,3,2.83195650000016,0,4,111,163,140,155,2,14,2,4.57041315333333,18.9933395116667,8627.7314419,3,NaN,NaN,NaN
4,15,10,SyncDelta,117,1144_1.7Hz.avi,ep39_zero_1.7Hz.wav,ep,1,3.61722109999937,0,4,177,117,173,176,2,5,4,4.57041315333333,18.9933395116667,8633.4147969,3,NaN,NaN,NaN
4,16,10,SyncDelta,170,1062_1.7Hz.avi,guitar3_zero_1.7Hz.wav,guitar,3,3.11585510000077,1,4,172,112,170,179,3,2,5,4.57041315333333,18.9933395116667,8638.5814603,3,NaN,NaN,NaN
4,1,11,SyncTheta,103,1084_4Hz.avi,dar20_zero_4Hz.wav,dar,2,5.40326149999964,0,4,103,191,126,122,1,11,2,4.63078546,18.9933395116667,8801.6318914,3,NaN,NaN,NaN
4,2,11,SyncTheta,78,1301_4Hz.avi,choir11_zero_4Hz.wav,choir,3,3.60317810000015,1,4,182,98,78,121,3,5,5,4.63078546,18.9933395116667,8809.4485434,3,NaN,NaN,NaN
4,3,11,SyncTheta,192,1231_4Hz.avi,orch32_zero_4Hz.wav,orch,2,4.1238857999997,1,4,142,192,143,134,2,14,5,4.63078546,18.9933395116667,8814.5152217,3,NaN,NaN,NaN
4,4,11,SyncTheta,142,1155_4Hz.avi,orch9_zero_4Hz.wav,orch,2,9.31961609999962,0,4,142,134,143,192,1,6,2,4.63078546,18.9933395116667,8821.7652382,3,NaN,NaN,NaN
4,5,11,SyncTheta,143,1127_4Hz.avi,orch11_zero_4Hz.wav,orch,3,3.68795099999988,0,4,142,143,192,134,2,3,2,4.63078546,18.9933395116667,8833.5652365,3,NaN,NaN,NaN
4,6,11,SyncTheta,83,1139_4Hz.avi,acoustic27_zero_4Hz.wav,acoustic,2,3.99208420000105,0,4,107,105,83,190,3,10,2,4.63078546,18.9933395116667,8838.798651,3,NaN,NaN,NaN
4,7,11,SyncTheta,121,1354_4Hz.avi,choir22_zero_4Hz.wav,choir,2,4.13881709999987,0,4,121,182,78,98,1,13,1,4.63078546,18.9933395116667,8844.5819328,3,NaN,NaN,NaN
4,8,11,SyncTheta,98,1014_4Hz.avi,choir41_zero_4Hz.wav,choir,2,5.31462459999966,1,4,182,98,78,121,2,8,4,4.63078546,18.9933395116667,8852.0153425,3,NaN,NaN,NaN
4,9,11,SyncTheta,134,1026_4Hz.avi,orch16_zero_4Hz.wav,orch,4,4.44574780000039,1,4,192,142,143,134,4,2,1,4.63078546,18.9933395116667,8859.8653275,3,NaN,NaN,NaN
4,10,11,SyncTheta,105,1003_4Hz.avi,acoustic6_zero_4Hz.wav,acoustic,3,6.81738999999834,0,4,190,105,107,83,2,16,4,4.63078546,18.9933395116667,8866.5820132,3,NaN,NaN,NaN
4,11,11,SyncTheta,122,1289_4Hz.avi,dar3_zero_4Hz.wav,dar,4,3.98132090000036,0,4,191,126,122,103,3,4,3,4.63078546,18.9933395116667,8876.1153705,3,NaN,NaN,NaN
4,12,11,SyncTheta,126,1298_4Hz.avi,dar9_zero_4Hz.wav,dar,3,5.52846169999975,1,4,191,103,126,122,3,9,1,4.63078546,18.9933395116667,8883.348695,3,NaN,NaN,NaN
4,13,11,SyncTheta,107,1265_4Hz.avi,acoustic16_zero_4Hz.wav,acoustic,3,6.95690780000041,1,4,105,190,107,83,3,12,2,4.63078546,18.9933395116667,8891.5987585,3,NaN,NaN,NaN
4,14,11,SyncTheta,191,1314_4Hz.avi,dar19_zero_4Hz.wav,dar,2,4.99694510000154,0,4,191,122,103,126,1,15,4,4.63078546,18.9933395116667,8900.348825,3,NaN,NaN,NaN
4,15,11,SyncTheta,190,1427_4Hz.avi,acoustic46_zero_4Hz.wav,acoustic,4,4.81376540000019,1,4,83,105,107,190,4,1,4,4.63078546,18.9933395116667,8908.0987833,3,NaN,NaN,NaN
4,16,11,SyncTheta,182,1277_4Hz.avi,choir39_zero_4Hz.wav,choir,4,4.62900230000014,0,4,182,98,78,121,1,7,1,4.63078546,18.9933395116667,8915.0655049,3,NaN,NaN,NaN
4,1,12,NoFlicker,56,1063_half_amp.avi,dar16_half_amp.wav,dar,4,3.43415239999922,1,4,43,29,49,56,4,12,4,4.52246518166667,18.9933395116667,9086.7825513,3,NaN,NaN,NaN
4,2,12,NoFlicker,63,1128_half_amp.avi,choir26_half_amp.wav,choir,4,6.12049939999997,1,4,12,52,68,63,4,9,1,4.52246518166667,18.9933395116667,9091.6992316,3,NaN,NaN,NaN
4,3,12,NoFlicker,57,1309_half_amp.avi,orch7_half_amp.wav,orch,4,4.23970670000017,1,4,30,81,85,57,4,15,5,4.52246518166667,18.9933395116667,9099.6159194,3,NaN,NaN,NaN
4,4,12,NoFlicker,30,1016_half_amp.avi,orch14_half_amp.wav,orch,4,6.22211770000104,1,4,85,81,57,30,4,14,2,4.52246518166667,18.9933395116667,9105.3492651,3,NaN,NaN,NaN
4,5,12,NoFlicker,81,1444_half_amp.avi,orch4_half_amp.wav,orch,1,4.77875609999865,0,4,85,30,81,57,3,7,5,4.52246518166667,18.9933395116667,9114.4159524,3,NaN,NaN,NaN
4,6,12,NoFlicker,44,1254_half_amp.avi,acoustic48_half_amp.wav,acoustic,3,5.52924519999942,0,4,47,23,5,44,4,3,5,4.52246518166667,18.9933395116667,9121.0160378,3,NaN,NaN,NaN
4,7,12,NoFlicker,12,1077_half_amp.avi,choir18_half_amp.wav,choir,2,3.50038450000102,1,4,68,12,52,63,2,13,5,4.52246518166667,18.9933395116667,9129.3993254,3,NaN,NaN,NaN
4,8,12,NoFlicker,52,1387_half_amp.avi,choir2_half_amp.wav,choir,3,3.5434151999998,1,4,68,63,52,12,3,11,4,4.52246518166667,18.9933395116667,9134.4993357,3,NaN,NaN,NaN
4,9,12,NoFlicker,85,1383_half_amp.avi,orch23_half_amp.wav,orch,4,2.61971149999954,0,4,85,57,30,81,1,4,5,4.52246518166667,18.9933395116667,9141.2160181,3,NaN,NaN,NaN
4,10,12,NoFlicker,5,1381_half_amp.avi,acoustic1_half_amp.wav,acoustic,1,3.57848639999975,0,4,47,5,23,44,2,6,2,4.52246518166667,18.9933395116667,9146.9326974,3,NaN,NaN,NaN
4,11,12,NoFlicker,29,1158_half_amp.avi,dar23_half_amp.wav,dar,1,4.38371639999968,0,4,49,56,43,29,4,1,4,4.52246518166667,18.9933395116667,9153.4827001,3,NaN,NaN,NaN
4,12,12,NoFlicker,49,1221_half_amp.avi,dar21_half_amp.wav,dar,4,3.82321540000157,0,4,56,49,43,29,2,8,2,4.52246518166667,18.9933395116667,9160.4993991,3,NaN,NaN,NaN
4,13,12,NoFlicker,47,1292_half_amp.avi,acoustic28_half_amp.wav,acoustic,3,3.21104009999908,0,4,47,44,5,23,1,5,3,4.52246518166667,18.9933395116667,9166.9160816,3,NaN,NaN,NaN
4,14,12,NoFlicker,43,1141_half_amp.avi,dar13_half_amp.wav,dar,3,3.97200739999971,1,4,29,56,43,49,3,16,2,4.52246518166667,18.9933395116667,9172.7827554,3,NaN,NaN,NaN
4,15,12,NoFlicker,23,1330_half_amp.avi,acoustic47_half_amp.wav,acoustic,2,5.6328252000003,0,4,23,44,47,5,1,2,5,4.52246518166667,18.9933395116667,9179.46608,3,NaN,NaN,NaN
4,16,12,NoFlicker,68,1023_half_amp.avi,choir3_half_amp.wav,choir,4,4.00244980000025,0,4,63,68,52,12,2,10,1,4.52246518166667,18.9933395116667,9187.1827959,3,NaN,NaN,NaN
