ParticipantID,TrialNumber,BlockNumber,Condition,ClipID,VideoFile,SoundFile,SoundCategory,Response,RT,Accuracy,ConditionID,Frame1,Frame2,Frame3,Frame4,CorrectKey,EncodingPosition,Rating,BlockDuration,ExperimentDuration,MemoryTestOnset
33,1,1,AsyncTheta,157,1225_4Hz.avi,willow14_oneeighty_4Hz.wav,willow,2,11.7155716,0,2,75,149,22,157,4,14,2,6.45128037166667,57.3061811083333,679.4470449
33,2,1,SyncTheta,75,1040_4Hz.avi,willow17_zero_4Hz.wav,willow,4,6.00415659999999,1,2,157,22,149,75,4,11,3,6.45128037166667,57.3061811083333,693.5722935
33,3,1,AsyncTheta,149,1200_4Hz.avi,willow8_oneeighty_4Hz.wav,willow,1,7.82550590000005,0,2,22,157,149,75,3,10,1,6.45128037166667,57.3061811083333,702.2308356
33,4,1,SyncTheta,87,1142_4Hz.avi,ep3_zero_4Hz.wav,ep,3,5.13556740000001,0,2,166,87,177,25,2,4,3,6.45128037166667,57.3061811083333,713.0810859
33,5,1,SyncTheta,25,1094_4Hz.avi,ep15_zero_4Hz.wav,ep,3,7.07732229999999,0,2,25,87,166,177,1,7,4,6.45128037166667,57.3061811083333,721.1145744
33,6,1,AsyncTheta,166,1227_4Hz.avi,ep5_oneeighty_4Hz.wav,ep,1,6.1620504,0,2,25,87,177,166,4,12,3,6.45128037166667,57.3061811083333,731.3816065
33,7,1,SyncTheta,70,1093_4Hz.avi,synth6_zero_4Hz.wav,synth,2,6.47909990000005,1,2,140,70,51,184,2,6,2,6.45128037166667,57.3061811083333,739.4566285
33,8,1,AsyncTheta,177,1283_4Hz.avi,ep38_oneeighty_4Hz.wav,ep,2,7.83116110000003,1,2,25,177,166,87,2,3,2,6.45128037166667,57.3061811083333,749.0151804
33,9,1,AsyncTheta,184,1052_4Hz.avi,synth40_oneeighty_4Hz.wav,synth,2,6.49523690000001,1,2,140,184,51,70,2,9,3,6.45128037166667,57.3061811083333,759.6321172
33,10,1,AsyncTheta,179,1186_4Hz.avi,guitar30_oneeighty_4Hz.wav,guitar,3,9.10270190000006,1,2,112,53,179,7,3,15,2,6.45128037166667,57.3061811083333,767.8073377
33,11,1,SyncTheta,53,1197_4Hz.avi,guitar46_zero_4Hz.wav,guitar,1,6.25006009999993,1,2,53,112,7,179,1,16,3,6.45128037166667,57.3061811083333,778.291008
33,12,1,SyncTheta,51,1331_4Hz.avi,synth47_zero_4Hz.wav,synth,3,5.02848970000002,1,2,140,70,51,184,3,5,5,6.45128037166667,57.3061811083333,786.7577182
33,13,1,SyncTheta,22,1212_4Hz.avi,willow20_zero_4Hz.wav,willow,1,5.27009150000004,0,2,157,22,75,149,2,13,4,6.45128037166667,57.3061811083333,793.8578771
33,14,1,AsyncTheta,112,1388_4Hz.avi,guitar39_oneeighty_4Hz.wav,guitar,1,5.37789529999998,1,2,112,7,179,53,1,1,2,6.45128037166667,57.3061811083333,802.3331683
33,15,1,SyncTheta,7,1017_4Hz.avi,guitar47_zero_4Hz.wav,guitar,3,7.3904407,0,2,7,179,53,112,1,8,2,6.45128037166667,57.3061811083333,809.241592
33,16,1,AsyncTheta,140,1270_4Hz.avi,synth17_oneeighty_4Hz.wav,synth,4,6.9425612,1,2,70,51,184,140,4,2,4,6.45128037166667,57.3061811083333,819.0501558
33,1,2,NoFlickerHalf,30,1016_half_length.avi,orch14_half_length.wav,orch,2,8.57326050000006,0,2,137,42,142,30,4,11,2,5.55529348,57.3061811083333,1042.5715323
33,2,2,NoFlickerFull,137,1303_half_amp.avi,orch10_half_amp.wav,orch,3,4.83338479999998,1,2,42,30,137,142,3,8,3,5.55529348,57.3061811083333,1053.2465275
33,3,2,NoFlickerHalf,42,1339_half_length.avi,orch31_half_length.wav,orch,4,4.75392599999986,0,2,42,142,30,137,1,3,1,5.55529348,57.3061811083333,1061.0298904
33,4,2,NoFlickerFull,96,1027_half_amp.avi,acoustic40_half_amp.wav,acoustic,4,8.65092709999999,0,2,21,96,39,105,2,12,3,5.55529348,57.3061811083333,1068.1633526
33,5,2,NoFlickerFull,105,1003_half_amp.avi,acoustic6_half_amp.wav,acoustic,4,4.46101539999995,1,2,21,96,39,105,4,13,3,5.55529348,57.3061811083333,1078.8883716
33,6,2,NoFlickerHalf,21,1112_half_length.avi,acoustic32_half_length.wav,acoustic,4,4.9849663,1,2,39,105,96,21,4,16,4,5.55529348,57.3061811083333,1086.0966562
33,7,2,NoFlickerFull,187,1164_half_amp.avi,dar12_half_amp.wav,dar,2,3.73517769999989,1,2,29,187,31,154,2,7,5,5.55529348,57.3061811083333,1093.6301014
33,8,2,NoFlickerHalf,39,1061_half_length.avi,acoustic11_half_length.wav,acoustic,1,3.57212060000006,0,2,96,39,105,21,2,5,5,5.55529348,57.3061811083333,1099.8968151
33,9,2,NoFlickerHalf,31,1404_half_length.avi,dar8_half_length.wav,dar,2,3.13824150000005,1,2,187,31,29,154,2,15,3,5.55529348,57.3061811083333,1104.8051284
33,10,2,NoFlickerHalf,69,1216_half_length.avi,choir32_half_length.wav,choir,4,5.62092429999984,0,2,69,139,160,63,1,10,2,5.55529348,57.3061811083333,1109.796741
33,11,2,NoFlickerHalf,63,1128_half_length.avi,choir26_half_length.wav,choir,3,4.23032069999999,0,2,139,160,69,63,4,14,2,5.55529348,57.3061811083333,1117.7634558
33,12,2,NoFlickerHalf,29,1158_half_length.avi,dar23_half_length.wav,dar,1,3.94098480000002,1,2,29,187,154,31,1,4,3,5.55529348,57.3061811083333,1124.8884975
33,13,2,NoFlickerFull,142,1155_half_amp.avi,orch9_half_amp.wav,orch,4,4.8128157000001,1,2,30,42,137,142,4,9,5,5.55529348,57.3061811083333,1131.4220358
33,14,2,NoFlickerFull,160,1421_half_amp.avi,choir13_half_amp.wav,choir,4,6.55486729999984,0,2,63,160,69,139,2,1,1,5.55529348,57.3061811083333,1139.3718902
33,15,2,NoFlickerFull,139,1192_half_amp.avi,choir5_half_amp.wav,choir,4,4.12852290000001,0,2,139,69,63,160,1,6,4,5.55529348,57.3061811083333,1148.3802577
33,16,2,NoFlickerFull,154,1074_half_amp.avi,dar5_half_amp.wav,dar,1,3.97162580000008,1,2,154,31,187,29,1,2,2,5.55529348,57.3061811083333,1155.4136973
33,1,3,NoFlickerFull,188,1036_half_amp.avi,orch26_half_amp.wav,orch,2,8.26090019999992,1,2,33,188,158,57,2,12,4,4.43583762333333,57.3061811083333,1309.3475612
33,2,3,NoFlickerHalf,57,1309_half_length.avi,orch7_half_length.wav,orch,2,5.03261959999986,0,2,57,158,188,33,1,6,5,4.43583762333333,57.3061811083333,1318.9725241
33,3,3,NoFlickerFull,158,1206_half_amp.avi,orch6_half_amp.wav,orch,1,6.76109670000005,0,2,57,33,188,158,4,2,2,4.43583762333333,57.3061811083333,1326.9808877
33,4,3,NoFlickerFull,175,1103_half_amp.avi,acoustic10_half_amp.wav,acoustic,1,4.99592930000017,1,2,175,20,60,104,1,7,3,4.43583762333333,57.3061811083333,1335.1727004
33,5,3,NoFlickerHalf,20,1236_half_length.avi,acoustic25_half_length.wav,acoustic,4,4.26871179999989,1,2,60,104,175,20,4,9,5,4.43583762333333,57.3061811083333,1343.4810591
33,6,3,NoFlickerFull,104,1111_half_amp.avi,acoustic31_half_amp.wav,acoustic,3,6.30740909999986,0,2,104,20,60,175,1,14,5,4.43583762333333,57.3061811083333,1349.7393056
33,7,3,NoFlickerFull,147,1304_half_amp.avi,dar10_half_amp.wav,dar,2,4.15039569999999,1,2,80,147,34,136,2,11,1,4.43583762333333,57.3061811083333,1358.6394334
33,8,3,NoFlickerHalf,60,1249_half_length.avi,acoustic20_half_length.wav,acoustic,4,4.3498324000002,0,2,175,60,104,20,2,5,3,4.43583762333333,57.3061811083333,1364.456133
33,9,3,NoFlickerHalf,80,1082_half_length.avi,dar15_half_length.wav,dar,2,3.94961290000015,0,2,80,136,147,34,1,16,2,4.43583762333333,57.3061811083333,1370.9561688
33,10,3,NoFlickerFull,78,1301_half_amp.avi,choir11_half_amp.wav,choir,3,4.63769619999994,0,2,78,13,52,88,1,13,4,4.43583762333333,57.3061811083333,1377.0395335
33,11,3,NoFlickerHalf,52,1387_half_length.avi,choir2_half_length.wav,choir,1,4.9361879999999,0,2,88,52,78,13,2,15,1,4.43583762333333,57.3061811083333,1383.6895357
33,12,3,NoFlickerHalf,34,1319_half_length.avi,dar22_half_length.wav,dar,4,5.38577480000004,0,2,34,136,147,80,1,10,3,4.43583762333333,57.3061811083333,1391.7727846
33,13,3,NoFlickerHalf,33,1136_half_length.avi,orch38_half_length.wav,orch,3,3.64516160000016,1,2,188,57,33,158,3,8,2,4.43583762333333,57.3061811083333,1400.0396124
33,14,3,NoFlickerFull,88,1191_half_amp.avi,choir20_half_amp.wav,choir,3,4.22143229999983,0,2,52,88,78,13,2,3,4,4.43583762333333,57.3061811083333,1405.5562233
33,15,3,NoFlickerHalf,13,1201_half_length.avi,choir7_half_length.wav,choir,3,3.58082239999999,1,2,52,78,13,88,3,4,2,4.43583762333333,57.3061811083333,1411.6895392
33,16,3,NoFlickerFull,136,1175_half_amp.avi,dar4_half_amp.wav,dar,2,8.04006359999994,0,2,147,80,136,34,3,1,3,4.43583762333333,57.3061811083333,1417.5647117
33,1,4,AsyncTheta,167,1177_4Hz.avi,willow24_oneeighty_4Hz.wav,willow,3,6.45717849999983,0,2,118,167,66,108,2,14,3,4.92368871333333,57.3061811083333,1590.1320129
33,2,4,SyncTheta,66,1215_4Hz.avi,willow18_zero_4Hz.wav,willow,2,7.63930800000003,0,2,118,167,108,66,4,10,2,4.92368871333333,57.3061811083333,1598.9736974
33,3,4,SyncTheta,108,1415_4Hz.avi,willow3_zero_4Hz.wav,willow,4,5.07028290000017,1,2,167,66,118,108,4,6,3,4.92368871333333,57.3061811083333,1608.5070566
33,4,4,AsyncTheta,123,1067_4Hz.avi,ep37_oneeighty_4Hz.wav,ep,4,5.5821926000001,1,2,101,144,6,123,4,4,4,4.92368871333333,57.3061811083333,1616.6321623
33,5,4,SyncTheta,6,1007_4Hz.avi,ep8_zero_4Hz.wav,ep,4,4.2752746000001,1,2,101,144,123,6,4,5,2,4.92368871333333,57.3061811083333,1624.2988664
33,6,4,AsyncTheta,144,1255_4Hz.avi,ep28_oneeighty_4Hz.wav,ep,2,4.16805669999985,1,2,101,144,6,123,2,9,2,4.92368871333333,57.3061811083333,1631.6321923
33,7,4,AsyncTheta,131,1366_4Hz.avi,synth34_oneeighty_4Hz.wav,synth,2,8.25024690000009,0,2,89,61,125,131,4,11,2,4.92368871333333,57.3061811083333,1637.9072207
33,8,4,SyncTheta,101,1295_4Hz.avi,ep40_zero_4Hz.wav,ep,2,4.71856349999985,1,2,123,101,6,144,2,2,2,4.92368871333333,57.3061811083333,1647.5989305
33,9,4,AsyncTheta,125,1050_4Hz.avi,synth36_oneeighty_4Hz.wav,synth,4,5.56063590000008,1,2,89,131,61,125,4,15,2,4.92368871333333,57.3061811083333,1654.3821765
33,10,4,AsyncTheta,185,1131_4Hz.avi,guitar45_oneeighty_4Hz.wav,guitar,3,9.18020159999992,0,2,185,3,172,93,1,12,2,4.92368871333333,57.3061811083333,1663.0739715
33,11,4,SyncTheta,3,1156_4Hz.avi,guitar31_zero_4Hz.wav,guitar,2,6.4927153000001,1,2,172,3,93,185,2,16,4,4.92368871333333,57.3061811083333,1675.2573404
33,12,4,SyncTheta,89,1393_4Hz.avi,synth41_zero_4Hz.wav,synth,1,6.24488049999991,1,2,89,61,131,125,1,3,2,4.92368871333333,57.3061811083333,1685.1156496
33,13,4,AsyncTheta,118,1020_4Hz.avi,willow22_oneeighty_4Hz.wav,willow,1,5.38645329999986,0,2,167,108,66,118,4,13,1,4.92368871333333,57.3061811083333,1694.549103
33,14,4,SyncTheta,93,1046_4Hz.avi,guitar18_zero_4Hz.wav,guitar,2,3.48150420000002,0,2,3,185,172,93,4,7,4,4.92368871333333,57.3061811083333,1702.6323949
33,15,4,AsyncTheta,172,1350_4Hz.avi,guitar10_oneeighty_4Hz.wav,guitar,2,3.44926499999997,1,2,93,172,3,185,2,8,1,4.92368871333333,57.3061811083333,1708.3658498
33,16,4,SyncTheta,61,1207_4Hz.avi,synth46_zero_4Hz.wav,synth,3,7.11210770000002,0,2,89,61,131,125,2,1,2,4.92368871333333,57.3061811083333,1713.9824588
33,1,5,SyncTheta,55,1044_4Hz.avi,willow4_zero_4Hz.wav,willow,4,12.5244230999999,0,2,55,119,152,92,1,16,3,4.609544575,57.3061811083333,1882.0748759
33,2,5,AsyncTheta,119,1189_4Hz.avi,willow11_oneeighty_4Hz.wav,willow,1,3.52019888296218,0,2,55,92,119,152,3,4,2,4.609544575,57.3061811083333,1896.92571991704
33,3,5,SyncTheta,92,1030_4Hz.avi,willow23_zero_4Hz.wav,willow,1,3.60761989999992,0,2,152,55,92,119,3,2,2,4.609544575,57.3061811083333,1903.4083519
33,4,5,SyncTheta,16,1442_4Hz.avi,ep34_zero_4Hz.wav,ep,3,5.92930730000012,0,2,176,16,132,65,2,5,3,4.609544575,57.3061811083333,1909.1835067
33,5,5,AsyncTheta,132,1356_4Hz.avi,ep30_oneeighty_4Hz.wav,ep,4,6.52141630000006,0,2,65,132,176,16,2,7,4,4.609544575,57.3061811083333,1916.9166695
33,6,5,SyncTheta,65,1013_4Hz.avi,ep22_zero_4Hz.wav,ep,3,3.82260870000005,1,2,132,16,65,176,3,14,4,4.609544575,57.3061811083333,1924.9668623
33,7,5,AsyncTheta,129,1286_4Hz.avi,synth30_oneeighty_4Hz.wav,synth,4,4.89800979999995,1,2,135,71,35,129,4,8,2,4.609544575,57.3061811083333,1931.4835155
33,8,5,AsyncTheta,176,1405_4Hz.avi,ep46_oneeighty_4Hz.wav,ep,3,3.84253109999986,1,2,65,132,176,16,3,1,2,4.609544575,57.3061811083333,1939.4669524
33,9,5,SyncTheta,71,1076_4Hz.avi,synth21_zero_4Hz.wav,synth,2,3.8967884000001,1,2,129,71,135,35,2,10,1,4.609544575,57.3061811083333,1945.8334618
33,10,5,AsyncTheta,146,1005_4Hz.avi,guitar14_oneeighty_4Hz.wav,guitar,4,4.76084999999989,0,2,170,59,146,73,3,12,2,4.609544575,57.3061811083333,1952.9002342
33,11,5,AsyncTheta,170,1062_4Hz.avi,guitar3_oneeighty_4Hz.wav,guitar,2,4.39086450000013,1,2,73,170,146,59,2,15,3,4.609544575,57.3061811083333,1959.6253183
33,12,5,AsyncTheta,135,1154_4Hz.avi,synth38_oneeighty_4Hz.wav,synth,4,6.02846260000001,0,2,135,129,71,35,1,6,3,4.609544575,57.3061811083333,1966.1335427
33,13,5,AsyncTheta,152,1445_4Hz.avi,willow2_oneeighty_4Hz.wav,willow,1,6.11337200000003,0,2,119,152,92,55,2,13,3,4.609544575,57.3061811083333,1974.5753504
33,14,5,SyncTheta,59,1346_4Hz.avi,guitar33_zero_4Hz.wav,guitar,4,3.53051619999997,1,2,146,73,170,59,4,9,4,4.609544575,57.3061811083333,1983.1338191
33,15,5,SyncTheta,73,1369_4Hz.avi,guitar19_zero_4Hz.wav,guitar,4,3.47053069999993,1,2,59,146,170,73,4,11,1,4.609544575,57.3061811083333,1988.267129
33,16,5,SyncTheta,35,1039_4Hz.avi,synth5_zero_4Hz.wav,synth,1,4.49120649999986,0,2,135,35,129,71,2,3,2,4.609544575,57.3061811083333,1993.2504335
33,1,6,NoFlickerHalf,28,1148_half_length.avi,orch19_half_length.wav,orch,1,8.0024997999999,0,2,134,143,28,85,3,14,2,4.60405033333333,57.3061811083333,2144.459515
33,2,6,NoFlickerFull,134,1026_half_amp.avi,orch16_half_amp.wav,orch,3,4.55688280000004,0,2,134,85,143,28,1,7,2,4.60405033333333,57.3061811083333,2154.6344171
33,3,6,NoFlickerHalf,85,1383_half_length.avi,orch23_half_length.wav,orch,3,8.34562460000006,1,2,143,28,85,134,3,5,2,4.60405033333333,57.3061811083333,2161.5177833
33,4,6,NoFlickerFull,190,1427_half_amp.avi,acoustic46_half_amp.wav,acoustic,1,7.97113579999996,1,2,190,5,83,47,1,6,4,4.60405033333333,57.3061811083333,2171.6512767
33,5,6,NoFlickerHalf,47,1292_half_length.avi,acoustic28_half_length.wav,acoustic,1,5.28934269999991,0,2,83,190,5,47,4,10,1,4.60405033333333,57.3061811083333,2181.7762054
33,6,6,NoFlickerHalf,5,1381_half_length.avi,acoustic1_half_length.wav,acoustic,2,6.98235169999998,1,2,190,5,47,83,2,15,2,4.60405033333333,57.3061811083333,2189.7846051
33,7,6,NoFlickerHalf,64,1098_half_length.avi,dar11_half_length.wav,dar,4,4.54959000000008,0,2,64,126,103,14,1,12,1,4.60405033333333,57.3061811083333,2198.117944
33,8,6,NoFlickerFull,83,1139_half_amp.avi,acoustic27_half_amp.wav,acoustic,3,4.15699399999994,0,2,190,5,47,83,4,2,4,4.60405033333333,57.3061811083333,2205.6846737
33,9,6,NoFlickerFull,126,1298_half_amp.avi,dar9_half_amp.wav,dar,4,5.97407250000015,1,2,103,14,64,126,4,16,2,4.60405033333333,57.3061811083333,2213.1848077
33,10,6,NoFlickerFull,181,1168_half_amp.avi,choir1_half_amp.wav,choir,3,11.8294886000003,0,2,11,159,10,181,4,11,4,4.60405033333333,57.3061811083333,2221.8350582
33,11,6,NoFlickerFull,159,1091_half_amp.avi,choir8_half_amp.wav,choir,3,3.88509680000016,0,2,11,159,181,10,2,13,2,4.60405033333333,57.3061811083333,2236.4015845
33,12,6,NoFlickerFull,103,1084_half_amp.avi,dar20_half_amp.wav,dar,3,5.0111852,1,2,126,14,103,64,3,8,4,4.60405033333333,57.3061811083333,2243.6099092
33,13,6,NoFlickerFull,143,1127_half_amp.avi,orch11_half_amp.wav,orch,1,3.56004940000003,1,2,143,85,134,28,1,9,3,4.60405033333333,57.3061811083333,2250.2932086
33,14,6,NoFlickerHalf,11,1448_half_length.avi,choir36_half_length.wav,choir,1,3.6457163,1,2,11,10,181,159,1,1,3,4.60405033333333,57.3061811083333,2256.6766443
33,15,6,NoFlickerHalf,10,1179_half_length.avi,choir4_half_length.wav,choir,1,4.35385570000017,0,2,159,181,10,11,3,4,2,4.60405033333333,57.3061811083333,2262.1599621
33,16,6,NoFlickerHalf,14,1416_half_length.avi,dar1_half_length.wav,dar,3,5.09310779999987,1,2,103,64,14,126,3,3,1,4.60405033333333,57.3061811083333,2268.9683463
33,1,7,NoFlickerFull,141,1401_half_amp.avi,orch12_half_amp.wav,orch,4,5.29847479999989,0,2,91,165,141,81,3,13,4,4.634972735,57.3061811083333,2427.0523839
33,2,7,NoFlickerHalf,91,1340_half_length.avi,orch46_half_length.wav,orch,1,4.89473869999983,0,2,165,91,81,141,2,10,2,4.634972735,57.3061811083333,2433.760819
33,3,7,NoFlickerHalf,81,1444_half_length.avi,orch4_half_length.wav,orch,4,6.43605509999998,0,2,165,141,81,91,3,6,2,4.634972735,57.3061811083333,2441.4025193
33,4,7,NoFlickerHalf,1,1064_half_length.avi,acoustic12_half_length.wav,acoustic,3,2.80109640000001,0,2,1,148,9,107,1,7,5,4.634972735,57.3061811083333,2449.2692741
33,5,7,NoFlickerHalf,9,1054_half_length.avi,acoustic44_half_length.wav,acoustic,3,7.50877280000032,0,2,1,9,107,148,2,8,4,4.634972735,57.3061811083333,2454.0525599
33,6,7,NoFlickerFull,148,1121_half_amp.avi,acoustic26_half_amp.wav,acoustic,1,8.25522709999996,1,2,148,1,107,9,1,15,4,4.634972735,57.3061811083333,2463.7026184
33,7,7,NoFlickerHalf,40,1239_half_length.avi,dar6_half_length.wav,dar,4,3.49152080000022,1,2,191,49,116,40,4,12,1,4.634972735,57.3061811083333,2474.3693073
33,8,7,NoFlickerFull,107,1265_half_amp.avi,acoustic16_half_amp.wav,acoustic,4,5.67253919999985,0,2,148,9,107,1,3,4,2,4.634972735,57.3061811083333,2480.4860499
33,9,7,NoFlickerHalf,49,1221_half_length.avi,dar21_half_length.wav,dar,1,4.3626847999999,1,2,49,191,116,40,1,14,2,4.634972735,57.3061811083333,2489.2693647
33,10,7,NoFlickerHalf,38,1184_half_length.avi,choir33_half_length.wav,choir,4,6.87538890000042,0,2,121,38,68,76,2,5,2,4.634972735,57.3061811083333,2496.1193587
33,11,7,NoFlickerHalf,68,1023_half_length.avi,choir3_half_length.wav,choir,2,6.17775130000018,0,2,76,38,68,121,3,16,2,4.634972735,57.3061811083333,2505.8694922
33,12,7,NoFlickerFull,191,1314_half_amp.avi,dar19_half_amp.wav,dar,3,6.50697889999992,1,2,40,49,191,116,3,9,3,4.634972735,57.3061811083333,2513.6028803
33,13,7,NoFlickerFull,165,1410_half_amp.avi,orch43_half_amp.wav,orch,1,6.49127570000019,0,2,81,165,141,91,2,11,2,4.634972735,57.3061811083333,2521.8779261
33,14,7,NoFlickerFull,76,1293_half_amp.avi,choir23_half_amp.wav,choir,3,6.95937480000021,0,2,76,121,68,38,1,1,3,4.634972735,57.3061811083333,2530.5195329
33,15,7,NoFlickerFull,121,1354_half_amp.avi,choir22_half_amp.wav,choir,1,5.36480310000024,1,2,121,68,76,38,1,2,2,4.634972735,57.3061811083333,2540.2279141
33,16,7,NoFlickerFull,116,1420_half_amp.avi,dar18_half_amp.wav,dar,1,3.89414440000019,1,2,116,40,49,191,1,3,3,4.634972735,57.3061811083333,2548.3446526
33,1,8,AsyncTheta,178,1057_4Hz.avi,willow9_oneeighty_4Hz.wav,willow,1,7.1961538999999,0,2,94,178,153,18,2,16,4,4.63772873,57.3061811083333,2707.2121459
33,2,8,AsyncTheta,153,1157_4Hz.avi,willow1_oneeighty_4Hz.wav,willow,1,4.2513484000001,1,2,153,178,94,18,1,9,4,4.63772873,57.3061811083333,2717.6538569
33,3,8,SyncTheta,94,1109_4Hz.avi,willow6_zero_4Hz.wav,willow,4,5.81051840000009,0,2,153,18,94,178,3,5,2,4.63772873,57.3061811083333,2724.2371835
33,4,8,SyncTheta,86,1278_4Hz.avi,ep35_zero_4Hz.wav,ep,4,5.96200009999984,1,2,150,99,138,86,4,2,2,4.63772873,57.3061811083333,2733.2206167
33,5,8,AsyncTheta,150,1394_4Hz.avi,ep11_oneeighty_4Hz.wav,ep,2,8.65438360000007,1,2,138,150,86,99,2,6,2,4.63772873,57.3061811083333,2741.7875274
33,6,8,SyncTheta,99,1173_4Hz.avi,ep6_zero_4Hz.wav,ep,1,4.46277790000022,0,2,138,150,99,86,3,10,2,4.63772873,57.3061811083333,2753.0789645
33,7,8,AsyncTheta,186,1031_4Hz.avi,synth7_oneeighty_4Hz.wav,synth,1,4.08757070000001,0,2,100,50,186,127,3,12,1,4.63772873,57.3061811083333,2759.4540861
33,8,8,AsyncTheta,138,1149_4Hz.avi,ep2_oneeighty_4Hz.wav,ep,4,3.5021541000001,0,2,138,99,150,86,1,1,4,4.63772873,57.3061811083333,2765.7290303
33,9,8,SyncTheta,100,1107_4Hz.avi,synth23_zero_4Hz.wav,synth,4,3.43757340000002,0,2,50,100,127,186,2,13,1,4.63772873,57.3061811083333,2771.1790332
33,10,8,AsyncTheta,168,1204_4Hz.avi,guitar36_oneeighty_4Hz.wav,guitar,4,9.41848849999997,0,2,77,168,161,46,2,11,4,4.63772873,57.3061811083333,2776.1790653
33,11,8,AsyncTheta,161,1433_4Hz.avi,guitar2_oneeighty_4Hz.wav,guitar,1,4.66841169999998,1,2,161,46,168,77,1,15,2,4.63772873,57.3061811083333,2787.8292181
33,12,8,SyncTheta,50,1049_4Hz.avi,synth43_zero_4Hz.wav,synth,3,5.97166040000002,0,2,50,186,127,100,1,4,2,4.63772873,57.3061811083333,2794.204179
33,13,8,SyncTheta,18,1101_4Hz.avi,willow13_zero_4Hz.wav,willow,3,6.30145059999995,0,2,94,18,153,178,2,14,2,4.63772873,57.3061811083333,2802.3626121
33,14,8,SyncTheta,46,1210_4Hz.avi,guitar48_zero_4Hz.wav,guitar,3,4.52323190000016,0,2,46,77,168,161,1,7,1,4.63772873,57.3061811083333,2810.554327
33,15,8,SyncTheta,77,1008_4Hz.avi,guitar42_zero_4Hz.wav,guitar,1,4.43232930000022,1,2,77,168,161,46,1,8,1,4.63772873,57.3061811083333,2817.1043611
33,16,8,AsyncTheta,127,1411_4Hz.avi,synth28_oneeighty_4Hz.wav,synth,1,6.44467749999967,0,2,100,127,50,186,2,3,2,4.63772873,57.3061811083333,2824.1460602
33,1,9,SyncTheta,37,1237_4Hz.avi,willow15_zero_4Hz.wav,willow,4,7.68513959999973,0,2,120,37,32,130,2,15,3,4.324380745,57.3061811083333,2979.7551533
33,2,9,AsyncTheta,130,1081_4Hz.avi,willow5_oneeighty_4Hz.wav,willow,1,5.81103519999988,0,2,32,130,37,120,2,3,2,4.324380745,57.3061811083333,2989.1468754
33,3,9,AsyncTheta,120,1365_4Hz.avi,willow21_oneeighty_4Hz.wav,willow,2,4.49615620000031,1,2,37,120,32,130,2,1,3,4.324380745,57.3061811083333,2997.0302404
33,4,9,AsyncTheta,189,1051_4Hz.avi,ep14_oneeighty_4Hz.wav,ep,4,4.06976990000021,0,2,180,189,106,41,2,9,2,4.324380745,57.3061811083333,3004.4970049
33,5,9,SyncTheta,41,1132_4Hz.avi,ep10_zero_4Hz.wav,ep,1,6.24626510000007,0,2,106,189,180,41,4,11,2,4.324380745,57.3061811083333,3011.3470091
33,6,9,AsyncTheta,180,1006_4Hz.avi,ep4_oneeighty_4Hz.wav,ep,1,4.93367680000028,1,2,180,189,41,106,1,13,2,4.324380745,57.3061811083333,3019.6886944
33,7,9,AsyncTheta,163,1441_4Hz.avi,synth27_oneeighty_4Hz.wav,synth,2,3.2966437,1,2,111,163,54,8,2,8,1,4.324380745,57.3061811083333,3026.2304134
33,8,9,SyncTheta,106,1113_4Hz.avi,ep29_zero_4Hz.wav,ep,3,3.4186093999997,0,2,180,41,189,106,4,4,2,4.324380745,57.3061811083333,3032.8389811
33,9,9,SyncTheta,54,1181_4Hz.avi,synth12_zero_4Hz.wav,synth,2,3.34179910000012,1,2,111,54,163,8,2,16,2,4.324380745,57.3061811083333,3039.4639714
33,10,9,SyncTheta,67,1310_4Hz.avi,guitar21_zero_4Hz.wav,guitar,2,3.44937679999975,1,2,183,67,15,164,2,10,3,4.324380745,57.3061811083333,3045.2471927
33,11,9,AsyncTheta,183,1374_4Hz.avi,guitar16_oneeighty_4Hz.wav,guitar,2,6.05932639999992,1,2,164,183,67,15,2,12,1,4.324380745,57.3061811083333,3052.0223328
33,12,9,SyncTheta,8,1252_4Hz.avi,synth25_zero_4Hz.wav,synth,2,3.2984634999998,1,2,111,8,54,163,2,7,3,4.324380745,57.3061811083333,3061.3723303
33,13,9,SyncTheta,32,1360_4Hz.avi,willow10_zero_4Hz.wav,willow,1,3.6264228,0,2,37,32,120,130,2,14,2,4.324380745,57.3061811083333,3067.3640222
33,14,9,AsyncTheta,164,1087_4Hz.avi,guitar17_oneeighty_4Hz.wav,guitar,3,3.55951420000019,1,2,183,15,164,67,3,5,1,4.324380745,57.3061811083333,3073.897469
33,15,9,SyncTheta,15,1422_4Hz.avi,guitar37_zero_4Hz.wav,guitar,2,5.0113237999999,1,2,67,15,183,164,2,6,2,4.324380745,57.3061811083333,3079.530808
33,16,9,AsyncTheta,111,1390_4Hz.avi,synth3_oneeighty_4Hz.wav,synth,2,4.17839849999973,1,2,163,111,8,54,2,2,2,4.324380745,57.3061811083333,3085.9558133
33,1,10,NoFlickerHalf,102,1012_half_length.avi,orch18_half_length.wav,orch,1,6.01203459999988,0,2,110,145,74,102,4,15,4,4.20722233833333,57.3061811083333,3236.3066863
33,2,10,NoFlickerHalf,74,1337_half_length.avi,orch24_half_length.wav,orch,3,4.74597360000007,0,2,102,110,145,74,4,7,2,4.20722233833333,57.3061811083333,3244.0067043
33,3,10,NoFlickerFull,110,1443_half_amp.avi,orch3_half_amp.wav,orch,1,7.20334820000016,0,2,102,74,110,145,3,3,4,4.20722233833333,57.3061811083333,3250.3400328
33,4,10,NoFlickerFull,169,1083_half_amp.avi,acoustic43_half_amp.wav,acoustic,3,3.51357539999981,0,2,4,113,58,169,4,5,5,4.20722233833333,57.3061811083333,3259.9983962
33,5,10,NoFlickerHalf,58,1323_half_length.avi,acoustic29_half_length.wav,acoustic,4,3.96962310000026,0,2,169,113,58,4,3,9,4,4.20722233833333,57.3061811083333,3265.1400909
33,6,10,NoFlickerFull,113,1037_half_amp.avi,acoustic23_half_amp.wav,acoustic,4,4.43720320000011,1,2,4,58,169,113,4,16,2,4.20722233833333,57.3061811083333,3271.5902123
33,7,10,NoFlickerFull,82,1449_half_amp.avi,dar17_half_amp.wav,dar,1,4.35351939999964,0,2,45,56,114,82,4,12,3,4.20722233833333,57.3061811083333,3278.0235845
33,8,10,NoFlickerHalf,4,1167_half_length.avi,acoustic37_half_length.wav,acoustic,2,5.22375300000022,0,2,169,58,4,113,3,2,3,4.20722233833333,57.3061811083333,3284.0985726
33,9,10,NoFlickerFull,114,1322_half_amp.avi,dar14_half_amp.wav,dar,4,4.05427320000035,0,2,45,56,114,82,3,14,3,4.20722233833333,57.3061811083333,3291.2487168
33,10,10,NoFlickerHalf,62,1058_half_length.avi,choir19_half_length.wav,choir,1,2.75511430000006,1,2,62,19,98,97,1,10,2,4.20722233833333,57.3061811083333,3296.9569178
33,11,10,NoFlickerHalf,19,1247_half_length.avi,choir38_half_length.wav,choir,4,3.96519020000005,1,2,62,97,98,19,4,13,2,4.20722233833333,57.3061811083333,3302.8903383
33,12,10,NoFlickerHalf,56,1063_half_length.avi,dar16_half_length.wav,dar,4,5.72334969999974,0,2,82,56,45,114,2,11,2,4.20722233833333,57.3061811083333,3309.5153856
33,13,10,NoFlickerFull,145,1352_half_amp.avi,orch39_half_amp.wav,orch,2,5.24389010000004,1,2,110,145,102,74,2,8,2,4.20722233833333,57.3061811083333,3317.7988662
33,14,10,NoFlickerFull,97,1368_half_amp.avi,choir30_half_amp.wav,choir,2,3.84382909999977,0,2,19,98,97,62,3,1,3,4.20722233833333,57.3061811083333,3325.582135
33,15,10,NoFlickerFull,98,1014_half_amp.avi,choir41_half_amp.wav,choir,3,3.76726689999987,0,2,98,19,97,62,1,6,2,4.20722233833333,57.3061811083333,3332.390499
33,16,10,NoFlickerHalf,45,1203_half_length.avi,dar2_half_length.wav,dar,2,3.22616779999998,1,2,82,45,56,114,2,4,2,4.20722233833333,57.3061811083333,3339.4321168
33,1,11,NoFlickerHalf,36,1284_half_length.avi,orch29_half_length.wav,orch,3,6.99019810000027,1,2,17,174,36,192,3,16,2,3.995293125,57.3061811083333,3487.0579688
33,2,11,NoFlickerFull,192,1231_half_amp.avi,orch32_half_amp.wav,orch,1,3.50263399999994,1,2,192,17,36,174,1,8,4,3.995293125,57.3061811083333,3496.3914585
33,3,11,NoFlickerFull,174,1119_half_amp.avi,orch45_half_amp.wav,orch,2,3.24077119999993,1,2,192,174,17,36,2,7,2,3.995293125,57.3061811083333,3501.749715
33,4,11,NoFlickerHalf,44,1254_half_length.avi,acoustic48_half_length.wav,acoustic,2,4.56333959999984,0,2,23,133,44,79,3,6,3,3.995293125,57.3061811083333,3506.7664633
33,5,11,NoFlickerFull,133,1341_half_amp.avi,acoustic14_half_amp.wav,acoustic,2,6.25597180000022,0,2,23,44,79,133,4,14,4,3.995293125,57.3061811083333,3513.3415424
33,6,11,NoFlickerFull,79,1071_half_amp.avi,acoustic17_half_amp.wav,acoustic,1,4.1708523999996,1,2,79,23,133,44,1,15,4,3.995293125,57.3061811083333,3521.7666499
33,7,11,NoFlickerHalf,2,1431_half_length.avi,dar24_half_length.wav,dar,1,4.8672646,0,2,43,122,2,162,3,11,4,3.995293125,57.3061811083333,3527.9500034
33,8,11,NoFlickerHalf,23,1330_half_length.avi,acoustic47_half_length.wav,acoustic,1,1.98742970000012,1,2,23,133,44,79,1,3,5,3.995293125,57.3061811083333,3535.099989
33,9,11,NoFlickerHalf,43,1141_half_length.avi,dar13_half_length.wav,dar,3,3.26609610000014,0,2,43,122,2,162,1,13,2,3.995293125,57.3061811083333,3538.9833383
33,10,11,NoFlickerHalf,12,1077_half_length.avi,choir18_half_length.wav,choir,3,5.14254690000007,0,2,12,72,182,124,1,10,2,3.995293125,57.3061811083333,3544.1834418
33,11,11,NoFlickerHalf,72,1097_half_length.avi,choir29_half_length.wav,choir,3,2.0774892999998,0,2,182,72,12,124,2,12,3,3.995293125,57.3061811083333,3551.0250501
33,12,11,NoFlickerFull,122,1289_half_amp.avi,dar3_half_amp.wav,dar,2,2.90974940000024,0,2,2,162,122,43,3,5,2,3.995293125,57.3061811083333,3555.9001635
33,13,11,NoFlickerHalf,17,1162_half_length.avi,orch1_half_length.wav,orch,4,2.86852320000025,1,2,174,36,192,17,4,9,4,3.995293125,57.3061811083333,3561.4500985
33,14,11,NoFlickerFull,124,1183_half_amp.avi,choir24_half_amp.wav,choir,2,3.98308529999986,1,2,72,124,12,182,2,1,2,3.995293125,57.3061811083333,3566.5918332
33,15,11,NoFlickerFull,182,1277_half_amp.avi,choir39_half_amp.wav,choir,2,2.67423120000012,0,2,12,72,124,182,4,2,2,3.995293125,57.3061811083333,3572.8917839
33,16,11,NoFlickerFull,162,1358_half_amp.avi,dar7_half_amp.wav,dar,3,5.08762909999996,0,2,122,162,43,2,2,4,3,3.995293125,57.3061811083333,3577.3752239
33,1,12,AsyncTheta,171,1280_4Hz.avi,willow19_oneeighty_4Hz.wav,willow,3,7.33850089999987,0,2,156,171,27,48,2,10,4,4.45532816333333,57.3061811083333,3735.6761956
33,2,12,SyncTheta,48,1021_4Hz.avi,willow12_zero_4Hz.wav,willow,4,5.71679049999966,0,2,171,27,48,156,3,2,2,4.45532816333333,57.3061811083333,3746.3261827
33,3,12,AsyncTheta,156,1060_4Hz.avi,willow7_oneeighty_4Hz.wav,willow,3,7.47689470000023,0,2,171,156,48,27,2,1,2,4.45532816333333,57.3061811083333,3753.7011823
33,4,12,SyncTheta,26,1190_4Hz.avi,ep7_zero_4Hz.wav,ep,3,7.16737329999978,0,2,173,26,24,117,2,7,3,4.45532816333333,57.3061811083333,3763.5346107
33,5,12,AsyncTheta,117,1144_4Hz.avi,ep39_oneeighty_4Hz.wav,ep,3,4.79207840000026,1,2,26,173,117,24,3,12,3,4.45532816333333,57.3061811083333,3772.3347098
33,6,12,SyncTheta,24,1217_4Hz.avi,ep44_zero_4Hz.wav,ep,4,3.75715069999978,0,2,117,173,24,26,3,13,3,4.45532816333333,57.3061811083333,3780.5097507
33,7,12,SyncTheta,109,1299_4Hz.avi,synth18_zero_4Hz.wav,synth,2,6.92771080000011,0,2,95,128,155,109,4,15,2,4.45532816333333,57.3061811083333,3786.7930756
33,8,12,AsyncTheta,173,1348_4Hz.avi,ep31_oneeighty_4Hz.wav,ep,1,3.57220550000011,0,2,117,24,173,26,3,4,4,4.45532816333333,57.3061811083333,3796.3181805
33,9,12,AsyncTheta,155,1042_4Hz.avi,synth10_oneeighty_4Hz.wav,synth,4,4.19294580000042,1,2,109,128,95,155,4,16,1,4.45532816333333,57.3061811083333,3801.2932647
33,10,12,AsyncTheta,115,1370_4Hz.avi,guitar9_oneeighty_4Hz.wav,guitar,4,4.91618229999995,0,2,115,84,151,90,1,8,2,4.45532816333333,57.3061811083333,3808.4515619
33,11,12,AsyncTheta,151,1259_4Hz.avi,guitar43_oneeighty_4Hz.wav,guitar,2,3.77006010000014,1,2,84,151,90,115,2,11,2,4.45532816333333,57.3061811083333,3814.9349514
33,12,12,AsyncTheta,128,1269_4Hz.avi,synth14_oneeighty_4Hz.wav,synth,2,3.82736629999999,0,2,155,109,128,95,3,14,2,4.45532816333333,57.3061811083333,3820.2515423
33,13,12,SyncTheta,27,1202_4Hz.avi,willow16_zero_4Hz.wav,willow,2,6.23163049999994,0,2,27,156,48,171,1,6,2,4.45532816333333,57.3061811083333,3827.4266031
33,14,12,SyncTheta,84,1294_4Hz.avi,guitar6_zero_4Hz.wav,guitar,4,3.58658219999961,0,2,84,90,151,115,1,3,2,4.45532816333333,57.3061811083333,3836.335081
33,15,12,SyncTheta,90,1273_4Hz.avi,guitar23_zero_4Hz.wav,guitar,1,2.93413819999978,0,2,84,90,151,115,2,5,2,4.45532816333333,57.3061811083333,3842.5933669
33,16,12,SyncTheta,95,1359_4Hz.avi,synth33_zero_4Hz.wav,synth,2,1.93144399999983,1,2,109,95,155,128,2,9,1,4.45532816333333,57.3061811083333,3847.9434105
