ParticipantID,TrialNumber,BlockNumber,Condition,ClipID,VideoFile,SoundFile,SoundCategory,Response,RT,Accuracy,ConditionID,Frame1,Frame2,Frame3,Frame4,CorrectKey,EncodingPosition,Rating,BlockDuration,ExperimentDuration,MemoryTestOnset
12,1,1,AsyncTheta,149,1200_4Hz.avi,willow8_oneeighty_4Hz.wav,willow,2,5.1000517,0,12,149,157,75,22,1,5,3,5.219316795,44.57004987,5986.868879
12,2,1,SyncTheta,51,1331_4Hz.avi,synth47_zero_4Hz.wav,synth,1,6.8502599,0,12,140,70,184,51,4,14,4,5.219316795,44.57004987,5994.027309
12,3,1,AsyncTheta,184,1052_4Hz.avi,synth40_oneeighty_4Hz.wav,synth,2,6.1845396,1,12,51,184,70,140,2,13,2,5.219316795,44.57004987,6004.468573
12,4,1,SyncTheta,70,1093_4Hz.avi,synth6_zero_4Hz.wav,synth,2,7.2258386,0,12,140,184,70,51,3,10,1,5.219316795,44.57004987,6014.109901
12,5,1,AsyncTheta,177,1283_4Hz.avi,ep38_oneeighty_4Hz.wav,ep,1,6.6300533,1,12,177,25,87,166,1,16,4,5.219316795,44.57004987,6024.00958
12,6,1,AsyncTheta,112,1388_4Hz.avi,guitar39_oneeighty_4Hz.wav,guitar,2,4.463033,1,12,179,112,53,7,2,4,5,5.219316795,44.57004987,6032.967873
12,7,1,SyncTheta,22,1212_4Hz.avi,willow20_zero_4Hz.wav,willow,3,4.7687906,1,12,157,75,22,149,3,3,4,5.219316795,44.57004987,6040.359059
12,8,1,AsyncTheta,166,1227_4Hz.avi,ep5_oneeighty_4Hz.wav,ep,3,3.7351679,0,12,177,166,87,25,2,2,4,5.219316795,44.57004987,6047.567223
12,9,1,SyncTheta,25,1094_4Hz.avi,ep15_zero_4Hz.wav,ep,4,3.5520213,1,12,166,177,87,25,4,11,3,5.219316795,44.57004987,6053.017063
12,10,1,SyncTheta,7,1017_4Hz.avi,guitar47_zero_4Hz.wav,guitar,2,6.4527961,0,12,179,53,7,112,3,15,4,5.219316795,44.57004987,6059.866891
12,11,1,AsyncTheta,179,1186_4Hz.avi,guitar30_oneeighty_4Hz.wav,guitar,1,5.9006975,0,12,53,112,7,179,4,12,4,5.219316795,44.57004987,6068.03356
12,12,1,SyncTheta,87,1142_4Hz.avi,ep3_zero_4Hz.wav,ep,4,6.1096569,0,12,25,177,87,166,3,9,2,5.219316795,44.57004987,6077.558041
12,13,1,SyncTheta,53,1197_4Hz.avi,guitar46_zero_4Hz.wav,guitar,1,7.4297202,0,12,7,112,53,179,3,7,1,5.219316795,44.57004987,6086.75796
12,14,1,SyncTheta,75,1040_4Hz.avi,willow17_zero_4Hz.wav,willow,2,5.5548536,1,12,149,75,157,22,2,6,3,5.219316795,44.57004987,6096.08278
12,15,1,AsyncTheta,140,1270_4Hz.avi,synth17_oneeighty_4Hz.wav,synth,1,3.9612218,0,12,70,184,140,51,3,8,4,5.219316795,44.57004987,6103.740922
12,16,1,AsyncTheta,157,1225_4Hz.avi,willow14_oneeighty_4Hz.wav,willow,1,6.6436815,0,12,22,75,149,157,4,1,2,5.219316795,44.57004987,6110.682159
12,1,3,NoFlickerFull,188,1036_half_amp.avi,orch26_half_amp.wav,orch,2,5.4770832,1,12,158,188,33,57,2,13,5,4.27852367,44.57004987,6391.449555
12,2,3,NoFlickerHalf,80,1082_half_length.avi,dar15_half_length.wav,dar,2,4.6325867,0,12,34,147,136,80,4,16,2,4.27852367,44.57004987,6399.299433
12,3,3,NoFlickerHalf,34,1319_half_length.avi,dar22_half_length.wav,dar,1,5.6551706,0,12,136,80,147,34,4,11,3,4.27852367,44.57004987,6405.990928
12,4,3,NoFlickerFull,136,1175_half_amp.avi,dar4_half_amp.wav,dar,4,3.1507373,1,12,147,80,34,136,4,10,4,4.27852367,44.57004987,6414.315515
12,5,3,NoFlickerHalf,20,1236_half_length.avi,acoustic25_half_length.wav,acoustic,4,4.1871404,1,12,60,175,104,20,4,12,5,4.27852367,44.57004987,6419.648808
12,6,3,NoFlickerFull,78,1301_half_amp.avi,choir11_half_amp.wav,choir,4,4.8380927,0,12,78,88,13,52,1,4,5,4.27852367,44.57004987,6427.382127
12,7,3,NoFlickerHalf,57,1309_half_length.avi,orch7_half_length.wav,orch,2,3.1760127,0,12,57,188,158,33,1,8,4,4.27852367,44.57004987,6435.13172
12,8,3,NoFlickerFull,104,1111_half_amp.avi,acoustic31_half_amp.wav,acoustic,1,4.5457801,0,12,175,60,20,104,4,1,4,4.27852367,44.57004987,6440.581754
12,9,3,NoFlickerHalf,60,1249_half_length.avi,acoustic20_half_length.wav,acoustic,4,4.5352339,0,12,60,20,175,104,1,9,3,4.27852367,44.57004987,6446.939916
12,10,3,NoFlickerHalf,13,1201_half_length.avi,choir7_half_length.wav,choir,3,6.4193535,0,12,78,13,88,52,2,15,1,4.27852367,44.57004987,6453.547858
12,11,3,NoFlickerHalf,52,1387_half_length.avi,choir2_half_length.wav,choir,1,5.150974,0,12,78,88,13,52,4,7,2,4.27852367,44.57004987,6463.06426
12,12,3,NoFlickerFull,175,1103_half_amp.avi,acoustic10_half_amp.wav,acoustic,1,6.3114427,0,12,20,175,104,60,2,2,4,4.27852367,44.57004987,6471.014158
12,13,3,NoFlickerFull,88,1191_half_amp.avi,choir20_half_amp.wav,choir,1,3.748473,0,12,13,78,88,52,3,6,4,4.27852367,44.57004987,6479.49715
12,14,3,NoFlickerFull,158,1206_half_amp.avi,orch6_half_amp.wav,orch,3,3.8641052,1,12,33,57,158,188,3,14,1,4.27852367,44.57004987,6484.805463
12,15,3,NoFlickerFull,147,1304_half_amp.avi,dar10_half_amp.wav,dar,4,5.5114706,0,12,147,80,136,34,1,5,2,4.27852367,44.57004987,6491.246933
12,16,3,NoFlickerHalf,33,1136_half_length.avi,orch38_half_length.wav,orch,3,5.7026614,0,12,188,158,57,33,4,3,3,4.27852367,44.57004987,6499.955156
12,1,4,AsyncTheta,118,1020_4Hz.avi,willow22_oneeighty_4Hz.wav,willow,4,7.1614376,1,12,108,167,66,118,4,7,1,4.563477347,44.57004987,6661.292463
12,2,4,AsyncTheta,125,1050_4Hz.avi,synth36_oneeighty_4Hz.wav,synth,3,5.488684027,1,12,61,89,125,131,3,13,2,4.563477347,44.57004987,6671.317767
12,3,4,SyncTheta,89,1393_4Hz.avi,synth41_zero_4Hz.wav,synth,2,3.7422431,0,12,131,61,89,125,3,10,2,4.563477347,44.57004987,6679.383521
12,4,4,SyncTheta,61,1207_4Hz.avi,synth46_zero_4Hz.wav,synth,1,4.1730972,0,12,131,125,61,89,3,9,2,4.563477347,44.57004987,6684.766605
12,5,4,SyncTheta,6,1007_4Hz.avi,ep8_zero_4Hz.wav,ep,1,4.8107352,1,12,6,123,144,101,1,16,3,4.563477347,44.57004987,6691.333157
12,6,4,AsyncTheta,172,1350_4Hz.avi,guitar10_oneeighty_4Hz.wav,guitar,3,5.6293346,0,12,172,3,185,93,1,1,2,4.563477347,44.57004987,6699.341123
12,7,4,SyncTheta,66,1215_4Hz.avi,willow18_zero_4Hz.wav,willow,2,3.2746695,0,12,118,167,108,66,4,6,2,4.563477347,44.57004987,6706.999467
12,8,4,AsyncTheta,144,1255_4Hz.avi,ep28_oneeighty_4Hz.wav,ep,3,4.7891581,0,12,101,144,123,6,2,2,4,4.563477347,44.57004987,6712.340997
12,9,4,SyncTheta,101,1295_4Hz.avi,ep40_zero_4Hz.wav,ep,1,4.8604578,1,12,101,123,6,144,1,15,5,4.563477347,44.57004987,6720.732343
12,10,4,SyncTheta,93,1046_4Hz.avi,guitar18_zero_4Hz.wav,guitar,1,6.0076133,0,12,172,185,93,3,3,11,3,4.563477347,44.57004987,6727.765682
12,11,4,AsyncTheta,185,1131_4Hz.avi,guitar45_oneeighty_4Hz.wav,guitar,1,4.3445884,0,12,3,93,185,172,3,8,4,4.563477347,44.57004987,6735.498669
12,12,4,AsyncTheta,123,1067_4Hz.avi,ep37_oneeighty_4Hz.wav,ep,2,4.0697326,0,12,123,144,6,101,1,14,5,4.563477347,44.57004987,6742.256839
12,13,4,SyncTheta,3,1156_4Hz.avi,guitar31_zero_4Hz.wav,guitar,3,7.1617757,1,12,93,172,3,185,3,5,3,4.563477347,44.57004987,6749.18997
12,14,4,AsyncTheta,167,1177_4Hz.avi,willow24_oneeighty_4Hz.wav,willow,3,4.7962025,0,12,167,66,108,118,1,12,4,4.563477347,44.57004987,6759.189592
12,15,4,AsyncTheta,131,1366_4Hz.avi,synth34_oneeighty_4Hz.wav,synth,4,6.2774587,0,12,125,89,131,61,3,3,1,4.563477347,44.57004987,6765.748012
12,16,4,SyncTheta,108,1415_4Hz.avi,willow3_zero_4Hz.wav,willow,1,5.0266255,0,12,66,167,108,118,3,4,3,4.563477347,44.57004987,6774.639181
12,1,5,AsyncTheta,152,1445_4Hz.avi,willow2_oneeighty_4Hz.wav,willow,3,7.4570432,1,12,55,92,152,119,3,9,3,4.876068408,44.57004987,6940.843017
12,2,5,AsyncTheta,135,1154_4Hz.avi,synth38_oneeighty_4Hz.wav,synth,4,8.4247928,0,12,71,35,135,129,3,16,4,4.876068408,44.57004987,6951.667664
12,3,5,SyncTheta,35,1039_4Hz.avi,synth5_zero_4Hz.wav,synth,2,3.9726161,1,12,71,35,129,135,2,15,2,4.876068408,44.57004987,6963.642376
12,4,5,AsyncTheta,129,1286_4Hz.avi,synth30_oneeighty_4Hz.wav,synth,4,4.8038065,1,12,135,35,71,129,4,10,3,4.876068408,44.57004987,6969.433936
12,5,5,SyncTheta,65,1013_4Hz.avi,ep22_zero_4Hz.wav,ep,3,5.6405749,1,12,16,132,65,176,3,13,4,4.876068408,44.57004987,6977.792206
12,6,5,AsyncTheta,170,1062_4Hz.avi,guitar3_oneeighty_4Hz.wav,guitar,3,10.0356654,0,12,73,146,59,170,4,1,3,4.876068408,44.57004987,6986.43362
12,7,5,SyncTheta,55,1044_4Hz.avi,willow4_zero_4Hz.wav,willow,4,5.6860113,0,12,55,119,152,92,1,6,4,4.876068408,44.57004987,6999.966366
12,8,5,AsyncTheta,132,1356_4Hz.avi,ep30_oneeighty_4Hz.wav,ep,1,6.8552726,0,12,176,65,16,132,4,3,4,4.876068408,44.57004987,7008.849473
12,9,5,AsyncTheta,176,1405_4Hz.avi,ep46_oneeighty_4Hz.wav,ep,1,5.0525542,1,12,176,65,132,16,1,8,2,4.876068408,44.57004987,7017.340964
12,10,5,SyncTheta,59,1346_4Hz.avi,guitar33_zero_4Hz.wav,guitar,3,7.0063031,0,12,170,146,73,59,4,12,3,4.876068408,44.57004987,7024.190811
12,11,5,AsyncTheta,146,1005_4Hz.avi,guitar14_oneeighty_4Hz.wav,guitar,3,4.3104011,1,12,170,73,146,59,3,11,1,4.876068408,44.57004987,7032.882118
12,12,5,SyncTheta,16,1442_4Hz.avi,ep34_zero_4Hz.wav,ep,3,3.889188,1,12,65,176,16,132,3,7,4,4.876068408,44.57004987,7039.506937
12,13,5,SyncTheta,73,1369_4Hz.avi,guitar19_zero_4Hz.wav,guitar,3,4.6844909,1,12,59,170,73,146,3,4,3,4.876068408,44.57004987,7045.532025
12,14,5,AsyncTheta,119,1189_4Hz.avi,willow11_oneeighty_4Hz.wav,willow,3,4.2897891,1,12,152,92,119,55,3,14,4,4.876068408,44.57004987,7053.489856
12,15,5,SyncTheta,71,1076_4Hz.avi,synth21_zero_4Hz.wav,synth,3,4.7728933,1,12,129,35,71,135,3,2,2,4.876068408,44.57004987,7060.064799
12,16,5,SyncTheta,92,1030_4Hz.avi,willow23_zero_4Hz.wav,willow,3,4.7340806,0,12,92,119,55,152,1,5,2,4.876068408,44.57004987,7067.698082
12,1,6,NoFlickerFull,134,1026_half_amp.avi,orch16_half_amp.wav,orch,3,4.7527131,1,12,85,28,134,143,3,6,3,4.361351133,44.57004987,7221.343625
12,2,6,NoFlickerFull,103,1084_half_amp.avi,dar20_half_amp.wav,dar,3,4.886899,0,12,103,64,14,126,1,16,3,4.361351133,44.57004987,7228.352053
12,3,6,NoFlickerFull,126,1298_half_amp.avi,dar9_half_amp.wav,dar,2,4.6350609,1,12,64,126,103,14,2,14,4,4.361351133,44.57004987,7236.360159
12,4,6,NoFlickerHalf,14,1416_half_length.avi,dar1_half_length.wav,dar,3,3.1722301,0,12,126,14,64,103,2,11,2,4.361351133,44.57004987,7244.276491
12,5,6,NoFlickerFull,83,1139_half_amp.avi,acoustic27_half_amp.wav,acoustic,1,4.280545,1,12,83,190,5,47,1,13,2,4.361351133,44.57004987,7250.40959
12,6,6,NoFlickerFull,159,1091_half_amp.avi,choir8_half_amp.wav,choir,1,5.1983523,0,12,10,181,11,159,4,2,2,4.361351133,44.57004987,7257.359579
12,7,6,NoFlickerFull,143,1127_half_amp.avi,orch11_half_amp.wav,orch,4,4.0136203,1,12,28,85,134,143,4,4,3,4.361351133,44.57004987,7265.02587
12,8,6,NoFlickerHalf,47,1292_half_length.avi,acoustic28_half_length.wav,acoustic,4,3.3583771,1,12,5,83,190,47,4,3,1,4.361351133,44.57004987,7272.117499
12,9,6,NoFlickerHalf,5,1381_half_length.avi,acoustic1_half_length.wav,acoustic,1,6.6622128,0,12,190,47,5,83,3,9,1,4.361351133,44.57004987,7277.117242
12,10,6,NoFlickerFull,181,1168_half_amp.avi,choir1_half_amp.wav,choir,2,3.3395846,1,12,11,181,159,10,2,15,5,4.361351133,44.57004987,7286.266867
12,11,6,NoFlickerHalf,10,1179_half_length.avi,choir4_half_length.wav,choir,4,7.25262,0,12,10,181,11,159,1,12,3,4.361351133,44.57004987,7291.900057
12,12,6,NoFlickerFull,190,1427_half_amp.avi,acoustic46_half_amp.wav,acoustic,3,4.9804149,0,12,190,47,5,83,1,7,2,4.361351133,44.57004987,7301.499801
12,13,6,NoFlickerHalf,11,1448_half_length.avi,choir36_half_length.wav,choir,3,4.2835816,1,12,10,159,11,181,3,5,4,4.361351133,44.57004987,7308.949846
12,14,6,NoFlickerHalf,28,1148_half_length.avi,orch19_half_length.wav,orch,1,3.8675148,1,12,28,85,134,143,1,10,2,4.361351133,44.57004987,7316.341329
12,15,6,NoFlickerHalf,64,1098_half_length.avi,dar11_half_length.wav,dar,3,5.3615785,0,12,64,14,103,126,1,8,1,4.361351133,44.57004987,7322.157869
12,16,6,NoFlickerHalf,85,1383_half_length.avi,orch23_half_length.wav,orch,1,4.2322312,1,12,85,143,134,28,1,1,4,4.361351133,44.57004987,7330.074278
12,1,7,NoFlickerFull,165,1410_half_amp.avi,orch43_half_amp.wav,orch,1,5.2836664,0,12,91,81,165,141,3,5,3,4.324387982,44.57004987,7481.594995
12,2,7,NoFlickerFull,191,1314_half_amp.avi,dar19_half_amp.wav,dar,4,9.7192858,0,12,191,116,40,49,1,16,4,4.324387982,44.57004987,7490.219939
12,3,7,NoFlickerFull,116,1420_half_amp.avi,dar18_half_amp.wav,dar,2,4.8191628,1,12,40,116,191,49,2,12,3,4.324387982,44.57004987,7502.827674
12,4,7,NoFlickerHalf,40,1239_half_length.avi,dar6_half_length.wav,dar,3,3.381386,1,12,49,116,40,191,3,10,3,4.324387982,44.57004987,7510.719747
12,5,7,NoFlickerFull,107,1265_half_amp.avi,acoustic16_half_amp.wav,acoustic,2,4.0919667,1,12,148,107,1,9,2,15,3,4.324387982,44.57004987,7517.243883
12,6,7,NoFlickerHalf,38,1184_half_length.avi,choir33_half_length.wav,choir,1,6.410801,1,12,38,121,76,68,1,2,3,4.324387982,44.57004987,7523.093727
12,7,7,NoFlickerHalf,81,1444_half_length.avi,orch4_half_length.wav,orch,3,4.1270603,1,12,165,91,81,141,3,3,4,4.324387982,44.57004987,7532.951811
12,8,7,NoFlickerHalf,1,1064_half_length.avi,acoustic12_half_length.wav,acoustic,2,4.9864901,0,12,107,148,1,9,3,4,4,4.324387982,44.57004987,7538.77671
12,9,7,NoFlickerFull,148,1121_half_amp.avi,acoustic26_half_amp.wav,acoustic,3,3.8615278,0,12,107,1,9,148,4,13,4,4.324387982,44.57004987,7545.6682
12,10,7,NoFlickerFull,121,1354_half_amp.avi,choir22_half_amp.wav,choir,3,5.2967549,1,12,76,68,121,38,3,14,4,4.324387982,44.57004987,7551.309665
12,11,7,NoFlickerFull,76,1293_half_amp.avi,choir23_half_amp.wav,choir,2,4.9214271,1,12,121,76,68,38,2,11,3,4.324387982,44.57004987,7559.376122
12,12,7,NoFlickerHalf,9,1054_half_length.avi,acoustic44_half_length.wav,acoustic,3,3.4627801,1,12,1,148,9,107,3,8,1,4.324387982,44.57004987,7566.209524
12,13,7,NoFlickerHalf,68,1023_half_length.avi,choir3_half_length.wav,choir,3,3.9249783,1,12,38,76,68,121,3,9,1,4.324387982,44.57004987,7571.792718
12,14,7,NoFlickerFull,141,1401_half_amp.avi,orch12_half_amp.wav,orch,1,4.7009896,0,12,165,81,141,91,3,6,3,4.324387982,44.57004987,7578.400636
12,15,7,NoFlickerHalf,49,1221_half_length.avi,dar21_half_length.wav,dar,1,3.1104374,0,12,191,40,49,116,3,7,2,4.324387982,44.57004987,7584.925704
12,16,7,NoFlickerHalf,91,1340_half_length.avi,orch46_half_length.wav,orch,2,3.7247624,0,12,91,141,81,165,1,1,2,4.324387982,44.57004987,7590.258887
12,1,8,SyncTheta,18,1101_4Hz.avi,willow13_zero_4Hz.wav,willow,2,7.6556961,0,12,178,153,18,94,3,8,4,4.322287443,44.57004987,7741.78788
12,2,8,SyncTheta,100,1107_4Hz.avi,synth23_zero_4Hz.wav,synth,1,6.2217767,1,12,100,186,50,127,1,16,4,4.322287443,44.57004987,7751.887672
12,3,8,AsyncTheta,186,1031_4Hz.avi,synth7_oneeighty_4Hz.wav,synth,1,3.5827146,0,12,50,100,127,186,4,15,3,4.322287443,44.57004987,7760.23745
12,4,8,AsyncTheta,127,1411_4Hz.avi,synth28_oneeighty_4Hz.wav,synth,3,3.3501692,1,12,186,100,127,50,3,11,3,4.322287443,44.57004987,7766.478946
12,5,8,AsyncTheta,138,1149_4Hz.avi,ep2_oneeighty_4Hz.wav,ep,4,4.207279,1,12,150,99,86,138,4,7,4,4.322287443,44.57004987,7773.437125
12,6,8,SyncTheta,46,1210_4Hz.avi,guitar48_zero_4Hz.wav,guitar,2,4.2053873,1,12,161,46,77,168,2,9,3,4.322287443,44.57004987,7780.628459
12,7,8,AsyncTheta,178,1057_4Hz.avi,willow9_oneeighty_4Hz.wav,willow,1,4.1623013,0,12,18,153,178,94,3,6,2,4.322287443,44.57004987,7788.103297
12,8,8,SyncTheta,99,1173_4Hz.avi,ep6_zero_4Hz.wav,ep,1,6.4580256,1,12,99,150,86,138,1,1,3,4.322287443,44.57004987,7794.003368
12,9,8,SyncTheta,86,1278_4Hz.avi,ep35_zero_4Hz.wav,ep,3,3.2842785,1,12,99,150,86,138,3,5,2,4.322287443,44.57004987,7802.202946
12,10,8,SyncTheta,77,1008_4Hz.avi,guitar42_zero_4Hz.wav,guitar,1,3.3131561,0,12,161,168,77,46,3,14,3,4.322287443,44.57004987,7807.811026
12,11,8,AsyncTheta,161,1433_4Hz.avi,guitar2_oneeighty_4Hz.wav,guitar,1,5.175119,0,12,77,161,46,168,2,12,2,4.322287443,44.57004987,7813.594513
12,12,8,AsyncTheta,150,1394_4Hz.avi,ep11_oneeighty_4Hz.wav,ep,4,3.2873157,1,12,99,86,138,150,4,3,4,4.322287443,44.57004987,7822.152418
12,13,8,AsyncTheta,168,1204_4Hz.avi,guitar36_oneeighty_4Hz.wav,guitar,1,5.0819451,0,12,161,46,77,168,4,10,4,4.322287443,44.57004987,7828.652431
12,14,8,SyncTheta,94,1109_4Hz.avi,willow6_zero_4Hz.wav,willow,4,4.2575499,0,12,94,18,153,178,1,13,4,4.322287443,44.57004987,7836.660441
12,15,8,SyncTheta,50,1049_4Hz.avi,synth43_zero_4Hz.wav,synth,4,4.0236278,0,12,100,50,127,186,2,2,2,4.322287443,44.57004987,7843.001802
12,16,8,AsyncTheta,153,1157_4Hz.avi,willow1_oneeighty_4Hz.wav,willow,2,4.8416286,0,12,178,94,18,153,4,4,4,4.322287443,44.57004987,7848.668305
12,1,9,SyncTheta,32,1360_4Hz.avi,willow10_zero_4Hz.wav,willow,4,6.0940144,0,12,130,32,120,37,2,9,2,4.716824067,44.57004987,8015.922255
12,2,9,AsyncTheta,163,1441_4Hz.avi,synth27_oneeighty_4Hz.wav,synth,4,4.2093335,0,12,163,111,8,54,1,15,2,4.716824067,44.57004987,8024.41366
12,3,9,AsyncTheta,111,1390_4Hz.avi,synth3_oneeighty_4Hz.wav,synth,4,7.0251956,0,12,111,163,54,8,1,14,5,4.716824067,44.57004987,8031.705029
12,4,9,SyncTheta,54,1181_4Hz.avi,synth12_zero_4Hz.wav,synth,2,3.3765708,0,12,54,163,111,8,1,8,1,4.716824067,44.57004987,8041.663085
12,5,9,AsyncTheta,189,1051_4Hz.avi,ep14_oneeighty_4Hz.wav,ep,3,7.8379463,0,12,41,189,180,106,2,13,4,4.716824067,44.57004987,8046.73821
12,6,9,SyncTheta,15,1422_4Hz.avi,guitar37_zero_4Hz.wav,guitar,3,8.7705014,0,12,164,183,67,15,4,2,2,4.716824067,44.57004987,8057.329583
12,7,9,SyncTheta,37,1237_4Hz.avi,willow15_zero_4Hz.wav,willow,2,3.8111734,0,12,32,130,120,37,4,7,4,4.716824067,44.57004987,8068.154041
12,8,9,AsyncTheta,180,1006_4Hz.avi,ep4_oneeighty_4Hz.wav,ep,4,5.041314,0,12,189,106,180,41,3,5,3,4.716824067,44.57004987,8075.020543
12,9,9,SyncTheta,41,1132_4Hz.avi,ep10_zero_4Hz.wav,ep,4,4.0151417,0,12,189,180,41,106,3,10,3,4.716824067,44.57004987,8083.478641
12,10,9,AsyncTheta,183,1374_4Hz.avi,guitar16_oneeighty_4Hz.wav,guitar,2,3.9385223,0,12,67,164,15,183,4,16,2,4.716824067,44.57004987,8090.136748
12,11,9,SyncTheta,67,1310_4Hz.avi,guitar21_zero_4Hz.wav,guitar,4,4.8033169,0,12,67,164,183,15,1,12,4,4.716824067,44.57004987,8095.770206
12,12,9,SyncTheta,106,1113_4Hz.avi,ep29_zero_4Hz.wav,ep,3,4.3953877,1,12,41,189,106,180,3,6,2,4.716824067,44.57004987,8103.211654
12,13,9,AsyncTheta,164,1087_4Hz.avi,guitar17_oneeighty_4Hz.wav,guitar,2,5.1189729,0,12,67,183,164,15,3,4,4,4.716824067,44.57004987,8109.719544
12,14,9,AsyncTheta,120,1365_4Hz.avi,willow21_oneeighty_4Hz.wav,willow,3,4.209535,0,12,37,130,32,120,4,11,3,4.716824067,44.57004987,8116.786098
12,15,9,SyncTheta,8,1252_4Hz.avi,synth25_zero_4Hz.wav,synth,2,6.6646233,0,12,54,163,8,111,3,1,3,4.716824067,44.57004987,8122.652808
12,16,9,AsyncTheta,130,1081_4Hz.avi,willow5_oneeighty_4Hz.wav,willow,4,4.2987895,0,12,120,32,130,37,3,3,4,4.716824067,44.57004987,8132.435634
12,1,10,NoFlickerFull,110,1443_half_amp.avi,orch3_half_amp.wav,orch,3,9.6292809,0,12,74,110,102,145,2,8,4,4.425298098,44.57004987,8283.789898
12,2,10,NoFlickerHalf,45,1203_half_length.avi,dar2_half_length.wav,dar,4,4.7393149,1,12,82,56,114,45,4,13,4,4.425298098,44.57004987,8296.681322
12,3,10,NoFlickerFull,82,1449_half_amp.avi,dar17_half_amp.wav,dar,1,4.2952435,1,12,82,56,45,114,1,11,3,4.425298098,44.57004987,8303.889322
12,4,10,NoFlickerFull,114,1322_half_amp.avi,dar14_half_amp.wav,dar,2,4.2491983,1,12,56,114,82,45,2,9,3,4.425298098,44.57004987,8310.689381
12,5,10,NoFlickerHalf,4,1167_half_length.avi,acoustic37_half_length.wav,acoustic,4,3.918343,1,12,58,113,169,4,4,15,3,4.425298098,44.57004987,8317.030598
12,6,10,NoFlickerFull,98,1014_half_amp.avi,choir41_half_amp.wav,choir,2,5.4582081,1,12,97,98,62,19,2,1,3,4.425298098,44.57004987,8324.288801
12,7,10,NoFlickerFull,145,1352_half_amp.avi,orch39_half_amp.wav,orch,4,4.7824275,0,12,102,110,145,74,3,6,4,4.425298098,44.57004987,8332.580464
12,8,10,NoFlickerFull,169,1083_half_amp.avi,acoustic43_half_amp.wav,acoustic,2,7.6729356,1,12,113,169,58,4,2,2,4,4.425298098,44.57004987,8340.530023
12,9,10,NoFlickerFull,113,1037_half_amp.avi,acoustic23_half_amp.wav,acoustic,4,5.1127823,0,12,113,169,4,58,1,14,3,4.425298098,44.57004987,8351.046428
12,10,10,NoFlickerFull,97,1368_half_amp.avi,choir30_half_amp.wav,choir,1,4.2440857,1,12,97,98,62,19,1,16,4,4.425298098,44.57004987,8358.096175
12,11,10,NoFlickerHalf,19,1247_half_length.avi,choir38_half_length.wav,choir,2,4.5727521,1,12,97,19,98,62,2,12,2,4.425298098,44.57004987,8365.05457
12,12,10,NoFlickerHalf,58,1323_half_length.avi,acoustic29_half_length.wav,acoustic,3,3.9569257,0,12,58,169,113,4,1,7,4,4.425298098,44.57004987,8371.179168
12,13,10,NoFlickerHalf,62,1058_half_length.avi,choir19_half_length.wav,choir,1,3.2511964,1,12,62,98,19,97,1,4,2,4.425298098,44.57004987,8377.104247
12,14,10,NoFlickerHalf,102,1012_half_length.avi,orch18_half_length.wav,orch,2,3.5336299,0,12,74,145,110,102,4,10,3,4.425298098,44.57004987,8383.84546
12,15,10,NoFlickerHalf,56,1063_half_length.avi,dar16_half_length.wav,dar,3,3.9844611,1,12,82,45,56,114,3,3,2,4.425298098,44.57004987,8390.603647
12,16,10,NoFlickerHalf,74,1337_half_length.avi,orch24_half_length.wav,orch,3,4.7803601,0,12,74,145,102,110,1,5,4,4.425298098,44.57004987,8397.695376
12,1,11,NoFlickerFull,192,1231_half_amp.avi,orch32_half_amp.wav,orch,1,5.627713,0,12,36,192,174,17,2,8,4,4.152011357,44.57004987,8547.241298
12,2,11,NoFlickerHalf,43,1141_half_length.avi,dar13_half_length.wav,dar,2,6.0143273,0,12,43,162,122,2,1,15,4,4.152011357,44.57004987,8555.607613
12,3,11,NoFlickerFull,122,1289_half_amp.avi,dar3_half_amp.wav,dar,4,4.9199246,1,12,162,43,2,122,4,11,3,4.152011357,44.57004987,8564.040529
12,4,11,NoFlickerHalf,2,1431_half_length.avi,dar24_half_length.wav,dar,1,2.3061446,0,12,43,122,162,2,4,5,3,4.152011357,44.57004987,8571.640339
12,5,11,NoFlickerHalf,23,1330_half_length.avi,acoustic47_half_length.wav,acoustic,2,3.607868,0,12,44,133,79,23,4,16,3,4.152011357,44.57004987,8575.481968
12,6,11,NoFlickerHalf,12,1077_half_length.avi,choir18_half_length.wav,choir,3,4.1510737,0,12,72,182,124,12,4,1,3,4.152011357,44.57004987,8582.140144
12,7,11,NoFlickerFull,174,1119_half_amp.avi,orch45_half_amp.wav,orch,3,3.4420936,1,12,17,192,174,36,3,6,4,4.152011357,44.57004987,8588.53164
12,8,11,NoFlickerFull,133,1341_half_amp.avi,acoustic14_half_amp.wav,acoustic,2,3.3273447,1,12,79,133,44,23,2,2,5,4.152011357,44.57004987,8593.873071
12,9,11,NoFlickerFull,79,1071_half_amp.avi,acoustic17_half_amp.wav,acoustic,2,3.7878866,0,12,79,44,133,23,1,13,4,4.152011357,44.57004987,8599.464879
12,10,11,NoFlickerFull,182,1277_half_amp.avi,choir39_half_amp.wav,choir,1,3.4211868,0,12,12,124,182,72,3,12,2,4.152011357,44.57004987,8606.380992
12,11,11,NoFlickerHalf,72,1097_half_length.avi,choir29_half_length.wav,choir,4,3.937866,1,12,12,124,182,72,4,9,2,4.152011357,44.57004987,8613.022497
12,12,11,NoFlickerHalf,44,1254_half_length.avi,acoustic48_half_length.wav,acoustic,3,4.0349015,0,12,133,23,79,44,4,10,4,4.152011357,44.57004987,8620.297302
12,13,11,NoFlickerFull,124,1183_half_amp.avi,choir24_half_amp.wav,choir,4,3.5488763,0,12,72,124,12,182,2,7,3,4.152011357,44.57004987,8627.547073
12,14,11,NoFlickerHalf,36,1284_half_length.avi,orch29_half_length.wav,orch,1,3.1470193,0,12,17,192,174,36,4,14,3,4.152011357,44.57004987,8634.030277
12,15,11,NoFlickerFull,162,1358_half_amp.avi,dar7_half_amp.wav,dar,4,6.0597661,0,12,43,122,162,2,3,3,3,4.152011357,44.57004987,8640.655098
12,16,11,NoFlickerHalf,17,1162_half_length.avi,orch1_half_length.wav,orch,2,3.4226339,0,12,36,192,17,174,3,4,2,4.152011357,44.57004987,8648.43824
12,1,12,AsyncTheta,156,1060_4Hz.avi,willow7_oneeighty_4Hz.wav,willow,4,6.3557062,0,12,171,156,48,27,2,14,4,4.185536197,44.57004987,8800.367541
12,2,12,SyncTheta,95,1359_4Hz.avi,synth33_zero_4Hz.wav,synth,4,4.2030949,0,12,109,95,128,155,2,12,4,4.185536197,44.57004987,8808.608919
12,3,12,SyncTheta,109,1299_4Hz.avi,synth18_zero_4Hz.wav,synth,2,3.3152353,0,12,95,128,109,155,3,7,3,4.185536197,44.57004987,8815.325421
12,4,12,AsyncTheta,128,1269_4Hz.avi,synth14_oneeighty_4Hz.wav,synth,1,4.023085,0,12,109,155,128,95,3,5,3,4.185536197,44.57004987,8821.841935
12,5,12,SyncTheta,26,1190_4Hz.avi,ep7_zero_4Hz.wav,ep,1,4.8257073,0,12,173,26,117,24,2,10,1,4.185536197,44.57004987,8827.933431
12,6,12,SyncTheta,84,1294_4Hz.avi,guitar6_zero_4Hz.wav,guitar,4,4.8736001,1,12,115,151,90,84,4,2,3,4.185536197,44.57004987,8834.408246
12,7,12,AsyncTheta,171,1280_4Hz.avi,willow19_oneeighty_4Hz.wav,willow,2,3.4154497,1,12,27,171,48,156,2,11,3,4.185536197,44.57004987,8842.324698
12,8,12,AsyncTheta,117,1144_4Hz.avi,ep39_oneeighty_4Hz.wav,ep,3,4.3990696,0,12,173,117,26,24,2,1,3,4.185536197,44.57004987,8849.091187
12,9,12,SyncTheta,24,1217_4Hz.avi,ep44_zero_4Hz.wav,ep,2,3.6366973,0,12,173,117,24,26,3,6,4,4.185536197,44.57004987,8855.316085
12,10,12,SyncTheta,90,1273_4Hz.avi,guitar23_zero_4Hz.wav,guitar,1,4.0759664,0,12,115,151,84,90,4,15,4,4.185536197,44.57004987,8860.757534
12,11,12,AsyncTheta,115,1370_4Hz.avi,guitar9_oneeighty_4Hz.wav,guitar,3,3.3675036,0,12,115,90,151,84,1,13,2,4.185536197,44.57004987,8866.86588
12,12,12,AsyncTheta,173,1348_4Hz.avi,ep31_oneeighty_4Hz.wav,ep,2,3.5396169,0,12,26,24,173,117,3,3,2,4.185536197,44.57004987,8873.382255
12,13,12,AsyncTheta,151,1259_4Hz.avi,guitar43_oneeighty_4Hz.wav,guitar,2,5.1665001,0,12,84,115,90,151,4,9,3,4.185536197,44.57004987,8878.548727
12,14,12,SyncTheta,27,1202_4Hz.avi,willow16_zero_4Hz.wav,willow,3,2.6156168,1,12,48,156,27,171,3,16,2,4.185536197,44.57004987,8886.656848
12,15,12,AsyncTheta,155,1042_4Hz.avi,synth10_oneeighty_4Hz.wav,synth,1,3.3012826,1,12,155,128,95,109,1,4,1,4.185536197,44.57004987,8892.631906
12,16,12,SyncTheta,48,1021_4Hz.avi,willow12_zero_4Hz.wav,willow,4,4.6332129,0,12,48,27,171,156,1,8,3,4.185536197,44.57004987,8898.598436
