ParticipantID,TrialNumber,BlockNumber,Condition,ClipID,VideoFile,SoundFile,SoundCategory,Response,RT,Accuracy,ConditionID,Frame1,Frame2,Frame3,Frame4,CorrectKey,EncodingPosition,Rating,BlockDuration,ExperimentDuration,MemoryTestOnset
26,1,1,NoFlickerHalf,31,1404_half_length.avi,dar8_half_length.wav,dar,1,3.6031739,1,26,31,154,29,187,1,12,4,6.07886077,58.84605757,684.6648956
26,2,1,NoFlickerFull,96,1027_half_amp.avi,acoustic40_half_amp.wav,acoustic,3,5.69263839999996,1,26,21,39,96,105,3,1,3,6.07886077,58.84605757,690.0566853
26,3,1,NoFlickerHalf,63,1128_half_length.avi,choir26_half_length.wav,choir,4,14.9924667,1,26,139,160,69,63,4,11,2,6.07886077,58.84605757,699.0484351
26,4,1,NoFlickerHalf,29,1158_half_length.avi,dar23_half_length.wav,dar,2,4.04224699999997,0,26,29,154,31,187,1,16,3,6.07886077,58.84605757,716.2654811
26,5,1,NoFlickerFull,187,1164_half_amp.avi,dar12_half_amp.wav,dar,1,3.17380969999999,1,26,187,154,29,31,1,6,4,6.07886077,58.84605757,723.4739102
26,6,1,NoFlickerHalf,69,1216_half_length.avi,choir32_half_length.wav,choir,1,5.5057405,0,26,139,69,63,160,2,14,3,6.07886077,58.84605757,728.6906399
26,7,1,NoFlickerFull,139,1192_half_amp.avi,choir5_half_amp.wav,choir,1,8.71179840000002,0,26,63,69,160,139,4,2,1,6.07886077,58.84605757,737.2157604
26,8,1,NoFlickerFull,160,1421_half_amp.avi,choir13_half_amp.wav,choir,1,5.97400949999997,1,26,160,69,139,63,1,9,1,6.07886077,58.84605757,749.3662205
26,9,1,NoFlickerFull,142,1155_half_amp.avi,orch9_half_amp.wav,orch,1,5.28406539999992,0,26,137,30,142,42,3,7,5,6.07886077,58.84605757,758.1911674
26,10,1,NoFlickerFull,105,1003_half_amp.avi,acoustic6_half_amp.wav,acoustic,3,10.2356202999999,0,26,96,21,39,105,4,8,5,6.07886077,58.84605757,765.6247058
26,11,1,NoFlickerHalf,21,1112_half_length.avi,acoustic32_half_length.wav,acoustic,2,15.5989612000001,0,26,39,96,21,105,3,13,4,6.07886077,58.84605757,778.1581276
26,12,1,NoFlickerHalf,39,1061_half_length.avi,acoustic11_half_length.wav,acoustic,4,3.18571499999996,0,26,96,39,21,105,2,4,2,6.07886077,58.84605757,796.6417631
26,13,1,NoFlickerHalf,30,1016_half_length.avi,orch14_half_length.wav,orch,2,5.92048999999997,1,26,42,30,137,142,2,10,1,6.07886077,58.84605757,801.7168709
26,14,1,NoFlickerHalf,42,1339_half_length.avi,orch31_half_length.wav,orch,2,4.93124980000005,0,26,30,137,42,142,3,15,1,6.07886077,58.84605757,809.5086791
26,15,1,NoFlickerFull,137,1303_half_amp.avi,orch10_half_amp.wav,orch,2,4.59932470000001,0,26,137,42,30,142,1,5,4,6.07886077,58.84605757,816.7921236
26,16,1,NoFlickerFull,154,1074_half_amp.avi,dar5_half_amp.wav,dar,2,7.25538929999993,0,26,31,29,187,154,4,3,2,6.07886077,58.84605757,823.8839126
26,1,2,SyncTheta,51,1331_4Hz.avi,synth47_zero_4Hz.wav,synth,1,3.88003319999984,1,26,51,184,70,140,1,10,3,5.61258646,58.84605757,1043.4873265
26,2,2,AsyncTheta,177,1283_4Hz.avi,ep38_oneeighty_4Hz.wav,ep,4,6.4093378,1,26,25,87,166,177,4,3,2,5.61258646,58.84605757,1049.2124345
26,3,2,SyncTheta,7,1017_4Hz.avi,guitar47_zero_4Hz.wav,guitar,2,4.41756719999989,0,26,112,53,7,179,3,6,1,5.61258646,58.84605757,1058.0793527
26,4,2,AsyncTheta,140,1270_4Hz.avi,synth17_oneeighty_4Hz.wav,synth,3,6.13194219999991,0,26,184,140,70,51,2,13,4,5.61258646,58.84605757,1065.7628067
26,5,2,AsyncTheta,184,1052_4Hz.avi,synth40_oneeighty_4Hz.wav,synth,1,4.8415935999999,1,26,184,70,51,140,1,7,2,5.61258646,58.84605757,1074.9712468
26,6,2,SyncTheta,53,1197_4Hz.avi,guitar46_zero_4Hz.wav,guitar,2,6.24038869999981,0,26,179,7,112,53,4,12,1,5.61258646,58.84605757,1083.2380594
26,7,2,AsyncTheta,112,1388_4Hz.avi,guitar39_oneeighty_4Hz.wav,guitar,3,3.25400560000003,0,26,7,112,53,179,2,2,1,5.61258646,58.84605757,1092.0297655
26,8,2,AsyncTheta,179,1186_4Hz.avi,guitar30_oneeighty_4Hz.wav,guitar,4,5.12099349999994,0,26,7,112,179,53,3,4,1,5.61258646,58.84605757,1098.4882946
26,9,2,SyncTheta,22,1212_4Hz.avi,willow20_zero_4Hz.wav,willow,1,4.8800346999999,0,26,157,75,22,149,3,9,3,5.61258646,58.84605757,1105.6133844
26,10,2,AsyncTheta,166,1227_4Hz.avi,ep5_oneeighty_4Hz.wav,ep,3,4.09235530000001,0,26,177,25,87,166,4,15,4,5.61258646,58.84605757,1112.3134899
26,11,2,SyncTheta,87,1142_4Hz.avi,ep3_zero_4Hz.wav,ep,2,4.11874119999993,0,26,25,166,87,177,3,16,5,5.61258646,58.84605757,1119.4967947
26,12,2,SyncTheta,25,1094_4Hz.avi,ep15_zero_4Hz.wav,ep,1,5.89165019999996,1,26,25,166,177,87,1,8,3,5.61258646,58.84605757,1126.5720116
26,13,2,AsyncTheta,149,1200_4Hz.avi,willow8_oneeighty_4Hz.wav,willow,4,6.35096859999999,0,26,149,157,75,22,1,11,2,5.61258646,58.84605757,1135.6970922
26,14,2,AsyncTheta,157,1225_4Hz.avi,willow14_oneeighty_4Hz.wav,willow,2,7.75114379999991,0,26,75,22,149,157,4,14,2,5.61258646,58.84605757,1144.2389714
26,15,2,SyncTheta,75,1040_4Hz.avi,willow17_zero_4Hz.wav,willow,3,6.2453258999999,1,26,157,22,75,149,3,5,1,5.61258646,58.84605757,1154.7059652
26,16,2,SyncTheta,70,1093_4Hz.avi,synth6_zero_4Hz.wav,synth,4,4.23774920000005,0,26,70,140,51,184,1,1,1,5.61258646,58.84605757,1163.8476014
26,1,3,AsyncTheta,125,1050_4Hz.avi,synth36_oneeighty_4Hz.wav,synth,2,10.9244073,1,26,89,125,131,61,2,12,2,4.90661028166667,58.84605757,1338.3001731
26,2,3,SyncTheta,6,1007_4Hz.avi,ep8_zero_4Hz.wav,ep,2,4.77123350000011,1,26,123,6,144,101,2,1,3,4.90661028166667,58.84605757,1352.2004602
26,3,3,SyncTheta,93,1046_4Hz.avi,guitar18_zero_4Hz.wav,guitar,4,5.63290120000011,0,26,172,93,3,185,2,7,2,4.90661028166667,58.84605757,1359.975592
26,4,3,SyncTheta,61,1207_4Hz.avi,synth46_zero_4Hz.wav,synth,4,4.0210763,1,26,125,131,89,61,4,14,3,4.90661028166667,58.84605757,1368.8921605
26,5,3,SyncTheta,89,1393_4Hz.avi,synth41_zero_4Hz.wav,synth,1,3.84502860000021,1,26,89,61,125,131,1,10,1,4.90661028166667,58.84605757,1376.2841935
26,6,3,SyncTheta,3,1156_4Hz.avi,guitar31_zero_4Hz.wav,guitar,4,4.22853759999998,0,26,93,3,185,172,2,11,2,4.90661028166667,58.84605757,1382.8425146
26,7,3,AsyncTheta,185,1131_4Hz.avi,guitar45_oneeighty_4Hz.wav,guitar,1,6.2832393000001,0,26,3,185,93,172,2,2,2,4.90661028166667,58.84605757,1389.834414
26,8,3,AsyncTheta,172,1350_4Hz.avi,guitar10_oneeighty_4Hz.wav,guitar,4,4.39431549999995,0,26,185,172,3,93,2,5,2,4.90661028166667,58.84605757,1399.7260526
26,9,3,AsyncTheta,118,1020_4Hz.avi,willow22_oneeighty_4Hz.wav,willow,4,5.52249929999994,0,26,167,108,118,66,3,4,1,4.90661028166667,58.84605757,1407.734574
26,10,3,AsyncTheta,144,1255_4Hz.avi,ep28_oneeighty_4Hz.wav,ep,3,4.78208610000001,0,26,6,144,123,101,2,13,2,4.90661028166667,58.84605757,1415.7513655
26,11,3,AsyncTheta,123,1067_4Hz.avi,ep37_oneeighty_4Hz.wav,ep,4,5.09062610000001,0,26,6,101,123,144,3,16,5,4.90661028166667,58.84605757,1423.6182953
26,12,3,SyncTheta,101,1295_4Hz.avi,ep40_zero_4Hz.wav,ep,1,3.30048959999999,1,26,101,144,123,6,1,9,3,4.90661028166667,58.84605757,1431.385002
26,13,3,AsyncTheta,167,1177_4Hz.avi,willow24_oneeighty_4Hz.wav,willow,3,4.62580969999999,0,26,108,66,118,167,4,6,5,4.90661028166667,58.84605757,1437.2518305
26,14,3,SyncTheta,108,1415_4Hz.avi,willow3_zero_4Hz.wav,willow,2,4.84193749999986,1,26,66,108,118,167,2,15,1,4.90661028166667,58.84605757,1443.7769559
26,15,3,SyncTheta,66,1215_4Hz.avi,willow18_zero_4Hz.wav,willow,3,2.91063009999993,0,26,118,66,167,108,2,3,5,4.90661028166667,58.84605757,1452.1687657
26,16,3,AsyncTheta,131,1366_4Hz.avi,synth34_oneeighty_4Hz.wav,synth,1,5.76267860000007,0,26,89,131,125,61,2,8,1,4.90661028166667,58.84605757,1456.9104447
26,1,4,NoFlickerHalf,34,1319_half_length.avi,dar22_half_length.wav,dar,4,6.08930490000012,0,26,136,147,34,80,3,9,1,4.74036845166667,58.84605757,1608.1964171
26,2,4,NoFlickerFull,175,1103_half_amp.avi,acoustic10_half_amp.wav,acoustic,3,5.94513119999988,0,26,175,104,20,60,1,2,5,4.74036845166667,58.84605757,1617.054638
26,3,4,NoFlickerFull,78,1301_half_amp.avi,choir11_half_amp.wav,choir,4,8.60372589999997,0,26,88,52,78,13,3,11,2,4.74036845166667,58.84605757,1625.6297194
26,4,4,NoFlickerFull,147,1304_half_amp.avi,dar10_half_amp.wav,dar,2,5.21236070000009,0,26,34,80,147,136,3,10,3,4.74036845166667,58.84605757,1636.9716133
26,5,4,NoFlickerFull,136,1175_half_amp.avi,dar4_half_amp.wav,dar,3,10.4091371999998,0,26,34,147,80,136,4,6,4,4.74036845166667,58.84605757,1645.1468589
26,6,4,NoFlickerHalf,52,1387_half_length.avi,choir2_half_length.wav,choir,1,5.47288939999999,1,26,52,13,88,78,1,13,1,4.74036845166667,58.84605757,1657.846925
26,7,4,NoFlickerHalf,13,1201_half_length.avi,choir7_half_length.wav,choir,1,5.97529370000007,1,26,13,52,88,78,1,1,3,4.74036845166667,58.84605757,1664.8720362
26,8,4,NoFlickerFull,88,1191_half_amp.avi,choir20_half_amp.wav,choir,4,5.13861350000002,0,26,13,88,78,52,2,8,1,4.74036845166667,58.84605757,1674.263881
26,9,4,NoFlickerFull,158,1206_half_amp.avi,orch6_half_amp.wav,orch,3,6.02479130000006,0,26,158,57,188,33,1,7,1,4.74036845166667,58.84605757,1681.4224347
26,10,4,NoFlickerFull,104,1111_half_amp.avi,acoustic31_half_amp.wav,acoustic,3,5.78634390000002,0,26,104,20,60,175,1,12,5,4.74036845166667,58.84605757,1690.8142586
26,11,4,NoFlickerHalf,20,1236_half_length.avi,acoustic25_half_length.wav,acoustic,4,10.3131718,0,26,175,60,20,104,3,14,5,4.74036845166667,58.84605757,1698.264265
26,12,4,NoFlickerHalf,60,1249_half_length.avi,acoustic20_half_length.wav,acoustic,1,5.18017349999991,1,26,60,175,20,104,1,3,5,4.74036845166667,58.84605757,1711.156252
26,13,4,NoFlickerHalf,33,1136_half_length.avi,orch38_half_length.wav,orch,3,6.21657759999994,0,26,57,33,158,188,2,15,3,4.74036845166667,58.84605757,1718.6230513
26,14,4,NoFlickerHalf,57,1309_half_length.avi,orch7_half_length.wav,orch,1,6.04001710000011,0,26,188,158,33,57,4,16,5,4.74036845166667,58.84605757,1726.581375
26,15,4,NoFlickerFull,188,1036_half_amp.avi,orch26_half_amp.wav,orch,4,4.14265019999993,0,26,188,33,158,57,1,4,4,4.74036845166667,58.84605757,1735.4149869
26,16,4,NoFlickerHalf,80,1082_half_length.avi,dar15_half_length.wav,dar,4,5.86503449999987,0,26,80,147,136,34,1,5,2,4.74036845166667,58.84605757,1741.4316034
26,1,5,NoFlickerFull,126,1298_half_amp.avi,dar9_half_amp.wav,dar,3,7.48175779999997,1,26,64,14,126,103,3,14,1,4.80940321833333,58.84605757,1905.4594258
26,2,5,NoFlickerFull,190,1427_half_amp.avi,acoustic46_half_amp.wav,acoustic,2,8.82877039999994,1,26,5,190,83,47,2,9,4,4.80940321833333,58.84605757,1915.9012347
26,3,5,NoFlickerFull,181,1168_half_amp.avi,choir1_half_amp.wav,choir,4,4.77899149999985,1,26,159,11,10,181,4,8,5,4.80940321833333,58.84605757,1926.9429371
26,4,5,NoFlickerHalf,14,1416_half_length.avi,dar1_half_length.wav,dar,1,9.52199599999994,0,26,64,126,103,14,4,15,2,4.80940321833333,58.84605757,1934.8682322
26,5,5,NoFlickerFull,103,1084_half_amp.avi,dar20_half_amp.wav,dar,1,5.02208900000005,1,26,103,126,14,64,1,13,4,4.80940321833333,58.84605757,1946.5101034
26,6,5,NoFlickerHalf,11,1448_half_length.avi,choir36_half_length.wav,choir,2,5.54159389999995,0,26,11,159,181,10,1,11,3,4.80940321833333,58.84605757,1954.8269149
26,7,5,NoFlickerHalf,10,1179_half_length.avi,choir4_half_length.wav,choir,2,5.41087429999993,0,26,10,11,181,159,1,1,3,4.80940321833333,58.84605757,1962.6853572
26,8,5,NoFlickerFull,159,1091_half_amp.avi,choir8_half_amp.wav,choir,4,3.6549444000002,0,26,11,181,159,10,3,4,1,4.80940321833333,58.84605757,1969.6854766
26,9,5,NoFlickerFull,134,1026_half_amp.avi,orch16_half_amp.wav,orch,2,5.78574679999997,1,26,143,134,28,85,2,5,3,4.80940321833333,58.84605757,1976.9270292
26,10,5,NoFlickerFull,83,1139_half_amp.avi,acoustic27_half_amp.wav,acoustic,1,4.13870829999996,1,26,83,47,190,5,1,12,5,4.80940321833333,58.84605757,1985.5107223
26,11,5,NoFlickerHalf,47,1292_half_length.avi,acoustic28_half_length.wav,acoustic,4,4.81492189999994,0,26,5,47,190,83,2,16,1,4.80940321833333,58.84605757,1992.0523826
26,12,5,NoFlickerHalf,5,1381_half_length.avi,acoustic1_half_length.wav,acoustic,4,2.83568880000007,0,26,5,190,47,83,1,10,1,4.80940321833333,58.84605757,1998.5109366
26,13,5,NoFlickerHalf,85,1383_half_length.avi,orch23_half_length.wav,orch,4,5.48997800000006,1,26,143,134,28,85,4,6,3,4.80940321833333,58.84605757,2003.1526886
26,14,5,NoFlickerHalf,28,1148_half_length.avi,orch19_half_length.wav,orch,1,5.89869419999991,0,26,134,85,28,143,3,7,1,4.80940321833333,58.84605757,2011.5111472
26,15,5,NoFlickerFull,143,1127_half_amp.avi,orch11_half_amp.wav,orch,4,7.75809590000017,0,26,85,134,143,28,3,3,5,4.80940321833333,58.84605757,2020.9445379
26,16,5,NoFlickerHalf,64,1098_half_length.avi,dar11_half_length.wav,dar,3,4.65964719999988,1,26,103,14,64,126,3,2,3,4.80940321833333,58.84605757,2031.4281372
26,1,6,SyncTheta,35,1039_4Hz.avi,synth5_zero_4Hz.wav,synth,2,10.9770436000003,0,26,35,135,129,71,1,10,2,4.63104434833333,58.84605757,2188.3554059
26,2,6,SyncTheta,65,1013_4Hz.avi,ep22_zero_4Hz.wav,ep,2,4.48257860000012,0,26,132,16,176,65,4,2,1,4.63104434833333,58.84605757,2202.0223883
26,3,6,SyncTheta,73,1369_4Hz.avi,guitar19_zero_4Hz.wav,guitar,1,4.9362970000002,1,26,73,146,170,59,1,13,2,4.63104434833333,58.84605757,2210.1474875
26,4,6,SyncTheta,71,1076_4Hz.avi,synth21_zero_4Hz.wav,synth,4,4.30083619999959,0,26,35,135,71,129,3,11,1,4.63104434833333,58.84605757,2217.9477694
26,5,6,AsyncTheta,135,1154_4Hz.avi,synth38_oneeighty_4Hz.wav,synth,3,4.10281600000008,0,26,71,129,35,135,4,9,2,4.63104434833333,58.84605757,2224.5143638
26,6,6,AsyncTheta,170,1062_4Hz.avi,guitar3_oneeighty_4Hz.wav,guitar,4,4.50334520000024,0,26,170,73,59,146,1,14,3,4.63104434833333,58.84605757,2230.556213
26,7,6,AsyncTheta,146,1005_4Hz.avi,guitar14_oneeighty_4Hz.wav,guitar,4,4.3636876999999,0,26,59,146,73,170,2,1,1,4.63104434833333,58.84605757,2237.3980883
26,8,6,SyncTheta,59,1346_4Hz.avi,guitar33_zero_4Hz.wav,guitar,4,5.15878100000009,1,26,170,146,73,59,4,5,5,4.63104434833333,58.84605757,2244.4980415
26,9,6,AsyncTheta,152,1445_4Hz.avi,willow2_oneeighty_4Hz.wav,willow,4,3.64093689999982,0,26,152,119,92,55,1,6,2,4.63104434833333,58.84605757,2252.6316637
26,10,6,SyncTheta,16,1442_4Hz.avi,ep34_zero_4Hz.wav,ep,1,4.43956239999989,0,26,176,16,132,65,2,12,2,4.63104434833333,58.84605757,2259.115036
26,11,6,AsyncTheta,132,1356_4Hz.avi,ep30_oneeighty_4Hz.wav,ep,1,4.04421199999979,0,26,65,176,132,16,3,15,4,4.63104434833333,58.84605757,2265.9735491
26,12,6,AsyncTheta,176,1405_4Hz.avi,ep46_oneeighty_4Hz.wav,ep,4,8.38769030000003,0,26,16,65,176,132,3,7,1,4.63104434833333,58.84605757,2272.0984767
26,13,6,SyncTheta,55,1044_4Hz.avi,willow4_zero_4Hz.wav,willow,3,4.04975549999972,0,26,152,92,119,55,4,8,1,4.63104434833333,58.84605757,2283.9903278
26,14,6,SyncTheta,92,1030_4Hz.avi,willow23_zero_4Hz.wav,willow,1,6.14422439999998,1,26,92,55,119,152,1,16,2,4.63104434833333,58.84605757,2291.1656152
26,15,6,AsyncTheta,119,1189_4Hz.avi,willow11_oneeighty_4Hz.wav,willow,2,6.97590820000005,0,26,55,152,92,119,4,3,2,4.63104434833333,58.84605757,2300.5907727
26,16,6,AsyncTheta,129,1286_4Hz.avi,synth30_oneeighty_4Hz.wav,synth,3,3.9877320999999,0,26,35,135,71,129,4,4,2,4.63104434833333,58.84605757,2310.1657443
26,1,7,AsyncTheta,186,1031_4Hz.avi,synth7_oneeighty_4Hz.wav,synth,4,6.68227799999977,1,26,127,100,50,186,4,12,3,4.86302391666667,58.84605757,2477.7601524
26,2,7,AsyncTheta,138,1149_4Hz.avi,ep2_oneeighty_4Hz.wav,ep,3,5.10228229999984,0,26,150,99,86,138,4,1,3,4.86302391666667,58.84605757,2487.3436121
26,3,7,AsyncTheta,168,1204_4Hz.avi,guitar36_oneeighty_4Hz.wav,guitar,4,4.40356820000034,1,26,46,77,161,168,4,10,4,4.86302391666667,58.84605757,2494.6436019
26,4,7,SyncTheta,50,1049_4Hz.avi,synth43_zero_4Hz.wav,synth,2,3.6406106000004,0,26,50,100,127,186,1,15,1,4.86302391666667,58.84605757,2501.3687969
26,5,7,AsyncTheta,127,1411_4Hz.avi,synth28_oneeighty_4Hz.wav,synth,1,5.56399740000006,1,26,127,50,186,100,1,6,1,4.86302391666667,58.84605757,2508.0605843
26,6,7,SyncTheta,46,1210_4Hz.avi,guitar48_zero_4Hz.wav,guitar,4,5.68369010000015,0,26,46,161,168,77,1,16,2,4.86302391666667,58.84605757,2516.3022524
26,7,7,SyncTheta,77,1008_4Hz.avi,guitar42_zero_4Hz.wav,guitar,2,3.81266810000034,0,26,161,46,168,77,4,3,3,4.86302391666667,58.84605757,2524.3940095
26,8,7,AsyncTheta,161,1433_4Hz.avi,guitar2_oneeighty_4Hz.wav,guitar,1,6.60810420000007,0,26,168,77,161,46,3,7,1,4.86302391666667,58.84605757,2531.7859237
26,9,7,SyncTheta,94,1109_4Hz.avi,willow6_zero_4Hz.wav,willow,1,6.97651509999969,0,26,18,94,153,178,2,5,5,4.86302391666667,58.84605757,2541.3526012
26,10,7,SyncTheta,99,1173_4Hz.avi,ep6_zero_4Hz.wav,ep,4,4.38273899999967,0,26,150,86,99,138,3,11,4,4.86302391666667,58.84605757,2551.1111663
26,11,7,AsyncTheta,150,1394_4Hz.avi,ep11_oneeighty_4Hz.wav,ep,2,6.15319070000032,0,26,150,99,138,86,1,13,3,4.86302391666667,58.84605757,2558.2862929
26,12,7,SyncTheta,86,1278_4Hz.avi,ep35_zero_4Hz.wav,ep,1,5.16812789999994,0,26,99,150,86,138,3,8,3,4.86302391666667,58.84605757,2566.4946311
26,13,7,AsyncTheta,153,1157_4Hz.avi,willow1_oneeighty_4Hz.wav,willow,4,4.81731960000025,0,26,178,153,94,18,2,9,2,4.86302391666667,58.84605757,2574.7447856
26,14,7,AsyncTheta,178,1057_4Hz.avi,willow9_oneeighty_4Hz.wav,willow,4,6.83998990000009,0,26,178,18,153,94,1,14,3,4.86302391666667,58.84605757,2582.9949876
26,15,7,SyncTheta,18,1101_4Hz.avi,willow13_zero_4Hz.wav,willow,3,5.51483250000001,0,26,178,94,153,18,4,4,4,4.86302391666667,58.84605757,2591.5701379
26,16,7,SyncTheta,100,1107_4Hz.avi,synth23_zero_4Hz.wav,synth,3,6.12483399999974,0,26,127,100,50,186,2,2,1,4.86302391666667,58.84605757,2600.036919
26,1,8,NoFlickerFull,191,1314_half_amp.avi,dar19_half_amp.wav,dar,4,8.30787780000037,0,26,40,116,191,49,3,13,4,4.382682905,58.84605757,2753.8473627
26,2,8,NoFlickerFull,107,1265_half_amp.avi,acoustic16_half_amp.wav,acoustic,3,6.08303019999994,1,26,9,1,107,148,3,1,2,4.382682905,58.84605757,2763.9810151
26,3,8,NoFlickerFull,121,1354_half_amp.avi,choir22_half_amp.wav,choir,4,7.02158860000009,0,26,38,121,68,76,2,7,2,4.382682905,58.84605757,2772.1811125
26,4,8,NoFlickerHalf,49,1221_half_length.avi,dar21_half_length.wav,dar,3,3.15223400000013,0,26,116,191,40,49,4,15,2,4.382682905,58.84605757,2780.8977823
26,5,8,NoFlickerFull,116,1420_half_amp.avi,dar18_half_amp.wav,dar,1,4.0394210999998,0,26,191,116,49,40,2,5,3,4.382682905,58.84605757,2787.0898166
26,6,8,NoFlickerHalf,38,1184_half_length.avi,choir33_half_length.wav,choir,1,4.44746440000017,1,26,38,68,121,76,1,16,1,4.382682905,58.84605757,2794.1897746
26,7,8,NoFlickerFull,76,1293_half_amp.avi,choir23_half_amp.wav,choir,2,4.98741300000029,1,26,38,76,68,121,2,2,1,4.382682905,58.84605757,2800.1896794
26,8,8,NoFlickerHalf,68,1023_half_length.avi,choir3_half_length.wav,choir,2,4.00936040000033,1,26,38,68,121,76,2,6,1,4.382682905,58.84605757,2807.6733354
26,9,8,NoFlickerHalf,91,1340_half_length.avi,orch46_half_length.wav,orch,2,4.73274290000018,0,26,141,81,165,91,4,10,2,4.382682905,58.84605757,2814.9899299
26,10,8,NoFlickerHalf,1,1064_half_length.avi,acoustic12_half_length.wav,acoustic,3,2.74425519999977,1,26,148,107,1,9,3,9,5,4.382682905,58.84605757,2823.2651464
26,11,8,NoFlickerFull,148,1121_half_amp.avi,acoustic26_half_amp.wav,acoustic,1,3.67865729999994,1,26,148,107,9,1,1,12,5,4.382682905,58.84605757,2829.2486679
26,12,8,NoFlickerHalf,9,1054_half_length.avi,acoustic44_half_length.wav,acoustic,4,3.77241379999987,1,26,148,1,107,9,4,8,4,4.382682905,58.84605757,2836.3571047
26,13,8,NoFlickerHalf,81,1444_half_length.avi,orch4_half_length.wav,orch,1,3.00660360000029,0,26,141,165,81,91,3,11,4,4.382682905,58.84605757,2842.2406475
26,14,8,NoFlickerFull,141,1401_half_amp.avi,orch12_half_amp.wav,orch,1,5.92920390000018,1,26,141,81,165,91,1,14,5,4.382682905,58.84605757,2848.6404801
26,15,8,NoFlickerFull,165,1410_half_amp.avi,orch43_half_amp.wav,orch,3,3.64471169999979,1,26,141,91,165,81,3,3,2,4.382682905,58.84605757,2856.6992122
26,16,8,NoFlickerHalf,40,1239_half_length.avi,dar6_half_length.wav,dar,4,5.50268749999987,1,26,116,49,191,40,4,4,2,4.382682905,58.84605757,2863.8325289
26,1,9,NoFlickerHalf,45,1203_half_length.avi,dar2_half_length.wav,dar,3,5.41169189999982,1,26,114,82,45,56,3,13,2,4.46412493333333,58.84605757,3020.751495
26,2,9,NoFlickerHalf,58,1323_half_length.avi,acoustic29_half_length.wav,acoustic,2,3.38747409999996,1,26,4,58,169,113,2,3,5,4.46412493333333,58.84605757,3028.7352151
26,3,9,NoFlickerHalf,62,1058_half_length.avi,choir19_half_length.wav,choir,2,5.99244380000027,0,26,62,98,19,97,1,5,1,4.46412493333333,58.84605757,3035.3350987
26,4,9,NoFlickerHalf,56,1063_half_length.avi,dar16_half_length.wav,dar,1,3.39145830000007,0,26,114,56,45,82,2,16,2,4.46412493333333,58.84605757,3044.5435396
26,5,9,NoFlickerFull,82,1449_half_amp.avi,dar17_half_amp.wav,dar,4,3.34042670000008,1,26,56,45,114,82,4,10,3,4.46412493333333,58.84605757,3050.4519569
26,6,9,NoFlickerFull,97,1368_half_amp.avi,choir30_half_amp.wav,choir,1,4.77192160000004,1,26,97,62,98,19,1,6,2,4.46412493333333,58.84605757,3055.7688179
26,7,9,NoFlickerHalf,19,1247_half_length.avi,choir38_half_length.wav,choir,1,4.25468510000019,1,26,19,98,62,97,1,1,4,4.46412493333333,58.84605757,3062.9440812
26,8,9,NoFlickerFull,98,1014_half_amp.avi,choir41_half_amp.wav,choir,4,4.0612443,0,26,98,62,19,97,1,2,3,4.46412493333333,58.84605757,3070.3355936
26,9,9,NoFlickerHalf,74,1337_half_length.avi,orch24_half_length.wav,orch,1,6.281567,0,26,102,74,110,145,2,8,1,4.46412493333333,58.84605757,3076.7689557
26,10,9,NoFlickerFull,169,1083_half_amp.avi,acoustic43_half_amp.wav,acoustic,1,4.96406129999968,1,26,169,4,58,113,1,14,5,4.46412493333333,58.84605757,3086.4277731
26,11,9,NoFlickerFull,113,1037_half_amp.avi,acoustic23_half_amp.wav,acoustic,2,4.3999990999996,1,26,4,113,58,169,2,15,4,4.46412493333333,58.84605757,3093.2276946
26,12,9,NoFlickerHalf,4,1167_half_length.avi,acoustic37_half_length.wav,acoustic,1,8.46711310000001,1,26,4,169,58,113,1,12,3,4.46412493333333,58.84605757,3100.9778612
26,13,9,NoFlickerFull,110,1443_half_amp.avi,orch3_half_amp.wav,orch,3,3.3116,1,26,74,102,110,145,3,9,5,4.46412493333333,58.84605757,3111.9280302
26,14,9,NoFlickerFull,145,1352_half_amp.avi,orch39_half_amp.wav,orch,3,4.22380680000015,0,26,110,145,74,102,2,11,2,4.46412493333333,58.84605757,3116.911423
26,15,9,NoFlickerHalf,102,1012_half_length.avi,orch18_half_length.wav,orch,1,5.85562699999991,0,26,145,110,102,74,3,4,2,4.46412493333333,58.84605757,3122.7281757
26,16,9,NoFlickerFull,114,1322_half_amp.avi,dar14_half_amp.wav,dar,3,6.16912489999959,0,26,56,82,45,114,4,7,3,4.46412493333333,58.84605757,3131.2448969
26,1,10,SyncTheta,54,1181_4Hz.avi,synth12_zero_4Hz.wav,synth,1,5.39929130000019,1,26,54,111,8,163,1,8,1,4.55945808666667,58.84605757,3291.0712415
26,2,10,AsyncTheta,189,1051_4Hz.avi,ep14_oneeighty_4Hz.wav,ep,2,5.58158299999968,0,26,189,41,180,106,1,3,3,4.55945808666667,58.84605757,3298.7710544
26,3,10,AsyncTheta,183,1374_4Hz.avi,guitar16_oneeighty_4Hz.wav,guitar,3,5.58986999999979,0,26,15,183,67,164,2,11,1,4.55945808666667,58.84605757,3307.0875623
26,4,10,AsyncTheta,163,1441_4Hz.avi,synth27_oneeighty_4Hz.wav,synth,3,4.44020030000001,1,26,54,8,163,111,3,9,1,4.55945808666667,58.84605757,3314.7790048
26,5,10,SyncTheta,8,1252_4Hz.avi,synth25_zero_4Hz.wav,synth,2,4.01495699999987,1,26,54,8,111,163,2,7,1,4.55945808666667,58.84605757,3321.5287256
26,6,10,SyncTheta,67,1310_4Hz.avi,guitar21_zero_4Hz.wav,guitar,3,5.93070320000015,0,26,164,15,183,67,4,14,3,4.55945808666667,58.84605757,3328.2201777
26,7,10,SyncTheta,15,1422_4Hz.avi,guitar37_zero_4Hz.wav,guitar,2,4.75339959999974,1,26,164,15,67,183,2,1,2,4.55945808666667,58.84605757,3337.5367421
26,8,10,AsyncTheta,164,1087_4Hz.avi,guitar17_oneeighty_4Hz.wav,guitar,4,5.61079410000002,1,26,183,67,15,164,4,10,2,4.55945808666667,58.84605757,3344.9532113
26,9,10,AsyncTheta,130,1081_4Hz.avi,willow5_oneeighty_4Hz.wav,willow,1,4.25440189999972,0,26,37,120,130,32,3,4,1,4.55945808666667,58.84605757,3353.686184
26,10,10,AsyncTheta,180,1006_4Hz.avi,ep4_oneeighty_4Hz.wav,ep,1,5.65979199999992,0,26,189,106,41,180,4,13,2,4.55945808666667,58.84605757,3359.886157
26,11,10,SyncTheta,41,1132_4Hz.avi,ep10_zero_4Hz.wav,ep,3,3.58260859999973,0,26,189,41,106,180,2,15,3,4.55945808666667,58.84605757,3368.3692795
26,12,10,SyncTheta,106,1113_4Hz.avi,ep29_zero_4Hz.wav,ep,4,4.34133029999975,0,26,106,180,189,41,1,12,4,4.55945808666667,58.84605757,3375.0107692
26,13,10,SyncTheta,32,1360_4Hz.avi,willow10_zero_4Hz.wav,willow,4,4.25375489999988,0,26,37,120,32,130,3,5,1,4.55945808666667,58.84605757,3382.6355641
26,14,10,AsyncTheta,120,1365_4Hz.avi,willow21_oneeighty_4Hz.wav,willow,4,5.07685399999991,1,26,32,130,37,120,4,16,2,4.55945808666667,58.84605757,3390.0270335
26,15,10,SyncTheta,37,1237_4Hz.avi,willow15_zero_4Hz.wav,willow,2,3.66247469999962,1,26,32,37,130,120,2,2,3,4.55945808666667,58.84605757,3398.643476
26,16,10,AsyncTheta,111,1390_4Hz.avi,synth3_oneeighty_4Hz.wav,synth,3,6.92388890000029,0,26,111,54,163,8,1,6,2,4.55945808666667,58.84605757,3404.3100034
26,1,11,AsyncTheta,128,1269_4Hz.avi,synth14_oneeighty_4Hz.wav,synth,3,5.48680370000011,1,26,155,95,128,109,3,13,1,4.87942169666667,58.84605757,3573.7304352
26,2,11,AsyncTheta,117,1144_4Hz.avi,ep39_oneeighty_4Hz.wav,ep,2,4.55342010000004,1,26,24,117,173,26,2,1,2,4.87942169666667,58.84605757,3582.7551419
26,3,11,AsyncTheta,151,1259_4Hz.avi,guitar43_oneeighty_4Hz.wav,guitar,3,6.00087649999978,1,26,84,90,151,115,3,10,1,4.87942169666667,58.84605757,3590.8965944
26,4,11,AsyncTheta,155,1042_4Hz.avi,synth10_oneeighty_4Hz.wav,synth,4,4.75941109999985,0,26,128,155,109,95,2,15,1,4.87942169666667,58.84605757,3599.8048617
26,5,11,SyncTheta,95,1359_4Hz.avi,synth33_zero_4Hz.wav,synth,3,3.84991649999984,0,26,128,95,155,109,2,12,1,4.87942169666667,58.84605757,3606.2545872
26,6,11,SyncTheta,90,1273_4Hz.avi,guitar23_zero_4Hz.wav,guitar,4,3.56809539999995,1,26,115,84,151,90,4,16,1,4.87942169666667,58.84605757,3613.5297033
26,7,11,SyncTheta,84,1294_4Hz.avi,guitar6_zero_4Hz.wav,guitar,2,3.85042889999977,1,26,115,84,151,90,2,5,2,4.87942169666667,58.84605757,3619.4708758
26,8,11,AsyncTheta,115,1370_4Hz.avi,guitar9_oneeighty_4Hz.wav,guitar,3,5.22390929999983,0,26,90,151,84,115,4,8,1,4.87942169666667,58.84605757,3625.1040182
26,9,11,AsyncTheta,171,1280_4Hz.avi,willow19_oneeighty_4Hz.wav,willow,4,5.64268930000026,0,26,171,27,48,156,1,7,3,4.87942169666667,58.84605757,3633.7705392
26,10,11,AsyncTheta,173,1348_4Hz.avi,ep31_oneeighty_4Hz.wav,ep,3,7.46506899999986,0,26,24,117,26,173,4,3,2,4.87942169666667,58.84605757,3643.0787046
26,11,11,SyncTheta,24,1217_4Hz.avi,ep44_zero_4Hz.wav,ep,2,6.09654619999992,0,26,24,173,117,26,1,6,2,4.87942169666667,58.84605757,3653.328371
26,12,11,SyncTheta,26,1190_4Hz.avi,ep7_zero_4Hz.wav,ep,4,7.26643599999989,1,26,117,173,24,26,4,2,2,4.87942169666667,58.84605757,3662.061667
26,13,11,SyncTheta,27,1202_4Hz.avi,willow16_zero_4Hz.wav,willow,4,6.43362669999988,0,26,171,156,27,48,3,9,2,4.87942169666667,58.84605757,3672.2196822
26,14,11,SyncTheta,48,1021_4Hz.avi,willow12_zero_4Hz.wav,willow,2,6.26322049999999,1,26,27,48,171,156,2,14,2,4.87942169666667,58.84605757,3680.8692582
26,15,11,AsyncTheta,156,1060_4Hz.avi,willow7_oneeighty_4Hz.wav,willow,4,5.57818450000013,0,26,171,48,156,27,3,4,4,4.87942169666667,58.84605757,3690.67733
26,16,11,SyncTheta,109,1299_4Hz.avi,synth18_zero_4Hz.wav,synth,3,4.40105159999985,0,26,95,109,128,155,2,11,2,4.87942169666667,58.84605757,3699.8271804
26,1,12,NoFlickerHalf,43,1141_half_length.avi,dar13_half_length.wav,dar,3,5.65790539999989,0,26,43,2,122,162,1,11,1,4.39176478,58.84605757,3855.9648608
26,2,12,NoFlickerFull,79,1071_half_amp.avi,acoustic17_half_amp.wav,acoustic,2,4.95836560000043,1,26,23,79,44,133,2,3,5,4.39176478,58.84605757,3864.2145398
26,3,12,NoFlickerHalf,12,1077_half_length.avi,choir18_half_length.wav,choir,4,6.76938059999975,1,26,124,72,182,12,4,15,1,4.39176478,58.84605757,3870.897902
26,4,12,NoFlickerHalf,2,1431_half_length.avi,dar24_half_length.wav,dar,1,4.91829890000008,0,26,122,43,162,2,4,14,3,4.39176478,58.84605757,3879.5474814
26,5,12,NoFlickerFull,122,1289_half_amp.avi,dar3_half_amp.wav,dar,2,3.62660899999992,0,26,43,2,162,122,4,5,3,4.39176478,58.84605757,3887.430615
26,6,12,NoFlickerFull,182,1277_half_amp.avi,choir39_half_amp.wav,choir,2,3.82108610000023,1,26,124,182,72,12,2,16,3,4.39176478,58.84605757,3893.3304722
26,7,12,NoFlickerFull,124,1183_half_amp.avi,choir24_half_amp.wav,choir,3,8.20281920000025,1,26,72,182,124,12,3,2,1,4.39176478,58.84605757,3899.2303721
26,8,12,NoFlickerHalf,72,1097_half_length.avi,choir29_half_length.wav,choir,1,6.64487199999985,0,26,124,12,72,182,3,6,4,4.39176478,58.84605757,3910.2301323
26,9,12,NoFlickerHalf,36,1284_half_length.avi,orch29_half_length.wav,orch,3,5.23888769999985,1,26,174,192,36,17,3,8,1,4.39176478,58.84605757,3918.746474
26,10,12,NoFlickerFull,133,1341_half_amp.avi,acoustic14_half_amp.wav,acoustic,3,5.94906610000044,0,26,44,133,79,23,2,10,3,4.39176478,58.84605757,3926.6048045
26,11,12,NoFlickerHalf,44,1254_half_length.avi,acoustic48_half_length.wav,acoustic,4,2.58868960000018,0,26,44,133,79,23,1,13,5,4.39176478,58.84605757,3935.3878554
26,12,12,NoFlickerHalf,23,1330_half_length.avi,acoustic47_half_length.wav,acoustic,3,2.54356499999994,0,26,79,23,133,44,2,7,5,4.39176478,58.84605757,3941.1292551
26,13,12,NoFlickerFull,174,1119_half_amp.avi,orch45_half_amp.wav,orch,4,4.82522779999999,1,26,36,17,192,174,4,9,2,4.39176478,58.84605757,3945.7376568
26,14,12,NoFlickerHalf,17,1162_half_length.avi,orch1_half_length.wav,orch,2,2.61875080000027,1,26,36,17,192,174,2,12,3,4.39176478,58.84605757,3953.9205715
26,15,12,NoFlickerFull,192,1231_half_amp.avi,orch32_half_amp.wav,orch,2,3.40871530000004,0,26,17,174,36,192,4,1,2,4.39176478,58.84605757,3959.5872884
26,16,12,NoFlickerFull,162,1358_half_amp.avi,dar7_half_amp.wav,dar,1,2.82947019999983,1,26,162,43,122,2,1,4,3,4.39176478,58.84605757,3965.1620112
