ParticipantID,TrialNumber,BlockNumber,Condition,ClipID,VideoFile,SoundFile,SoundCategory,Response,RT,Accuracy,ConditionID,Frame1,Frame2,Frame3,Frame4,CorrectKey,EncodingPosition,Rating,BlockDuration,ExperimentDuration,MemoryTestOnset
19,1,1,SyncTheta,63,1128_4Hz.avi,choir26_zero_4Hz.wav,choir,1,12.3868696000009,0,19,160,69,63,139,3,1,3,5.81326954333333,55.8186209066667,10849.0783483
19,2,1,SyncTheta,42,1339_4Hz.avi,orch31_zero_4Hz.wav,orch,3,8.35905970000022,0,19,30,42,137,142,2,11,2,5.81326954333333,55.8186209066667,10863.2193602
19,3,1,SyncTheta,30,1016_4Hz.avi,orch14_zero_4Hz.wav,orch,2,5.49397359999966,1,19,142,30,137,42,2,13,3,5.81326954333333,55.8186209066667,10875.0275547
19,4,1,AsyncTheta,142,1155_4Hz.avi,orch9_oneeighty_4Hz.wav,orch,3,6.27861680000024,0,19,30,137,42,142,4,2,2,5.81326954333333,55.8186209066667,10883.5689767
19,5,1,AsyncTheta,137,1303_4Hz.avi,orch10_oneeighty_4Hz.wav,orch,2,3.49508109999988,0,19,42,142,137,30,3,12,4,5.81326954333333,55.8186209066667,10893.2767674
19,6,1,SyncTheta,69,1216_4Hz.avi,choir32_zero_4Hz.wav,choir,4,7.49905080000099,0,19,160,139,69,63,3,9,5,5.81326954333333,55.8186209066667,10900.3517953
19,7,1,SyncTheta,31,1404_4Hz.avi,dar8_zero_4Hz.wav,dar,3,5.27422649999971,1,19,187,29,31,154,3,16,2,5.81326954333333,55.8186209066667,10911.2846305
19,8,1,AsyncTheta,105,1003_4Hz.avi,acoustic6_oneeighty_4Hz.wav,acoustic,4,4.81655300000057,0,19,21,105,96,39,2,14,5,5.81326954333333,55.8186209066667,10919.5926958
19,9,1,SyncTheta,29,1158_4Hz.avi,dar23_zero_4Hz.wav,dar,1,4.99693809999917,0,19,154,29,187,31,2,8,4,5.81326954333333,55.8186209066667,10926.8174531
19,10,1,SyncTheta,39,1061_4Hz.avi,acoustic11_zero_4Hz.wav,acoustic,2,11.9628906999988,0,19,21,105,39,96,3,3,4,5.81326954333333,55.8186209066667,10934.6754734
19,11,1,AsyncTheta,154,1074_4Hz.avi,dar5_oneeighty_4Hz.wav,dar,3,8.37758629999917,0,19,154,31,29,187,1,10,3,5.81326954333333,55.8186209066667,10949.9083456
19,12,1,AsyncTheta,187,1164_4Hz.avi,dar12_oneeighty_4Hz.wav,dar,4,4.52196309999999,1,19,31,29,154,187,4,7,4,5.81326954333333,55.8186209066667,10960.7415021
19,13,1,AsyncTheta,96,1027_4Hz.avi,acoustic40_oneeighty_4Hz.wav,acoustic,4,5.91588429999865,1,19,39,21,105,96,4,6,1,5.81326954333333,55.8186209066667,10968.4247668
19,14,1,SyncTheta,21,1112_4Hz.avi,acoustic32_zero_4Hz.wav,acoustic,1,3.3577492000004,1,19,21,105,39,96,1,15,3,5.81326954333333,55.8186209066667,10976.0078553
19,15,1,AsyncTheta,139,1192_4Hz.avi,choir5_oneeighty_4Hz.wav,choir,3,6.01165190000029,1,19,160,63,139,69,3,4,2,5.81326954333333,55.8186209066667,10981.2741445
19,16,1,AsyncTheta,160,1421_4Hz.avi,choir13_oneeighty_4Hz.wav,choir,1,3.07445200000075,0,19,69,63,139,160,4,5,3,5.81326954333333,55.8186209066667,10989.3739181
19,1,2,NoFlickerHalf,7,1017_half_length.avi,guitar47_half_length.wav,guitar,1,9.69406730000082,0,19,53,112,7,179,3,5,3,4.699953575,55.8186209066667,11143.286106
19,2,2,NoFlickerHalf,22,1212_half_length.avi,willow20_half_length.wav,willow,3,4.99437180000132,0,19,149,75,157,22,4,4,5,4.699953575,55.8186209066667,11156.0522971
19,3,2,NoFlickerFull,157,1225_half_amp.avi,willow14_half_amp.wav,willow,3,4.8008890000001,0,19,157,22,149,75,1,15,5,4.699953575,55.8186209066667,11163.285482
19,4,2,NoFlickerHalf,75,1040_half_length.avi,willow17_half_length.wav,willow,2,3.24473419999958,1,19,22,75,149,157,2,3,2,4.699953575,55.8186209066667,11171.4102194
19,5,2,NoFlickerFull,149,1200_half_amp.avi,willow8_half_amp.wav,willow,1,3.75773310000113,0,19,22,157,75,149,4,11,4,4.699953575,55.8186209066667,11177.5435671
19,6,2,NoFlickerFull,112,1388_half_amp.avi,guitar39_half_amp.wav,guitar,3,4.07924029999958,1,19,7,53,112,179,3,16,2,4.699953575,55.8186209066667,11184.6680614
19,7,2,NoFlickerFull,140,1270_half_amp.avi,synth17_half_amp.wav,synth,1,4.01764789999834,1,19,140,51,184,70,1,7,4,4.699953575,55.8186209066667,11190.4595148
19,8,2,NoFlickerHalf,87,1142_half_length.avi,ep3_half_length.wav,ep,2,5.99670759999935,0,19,87,25,177,166,1,13,1,4.699953575,55.8186209066667,11196.7762354
19,9,2,NoFlickerHalf,51,1331_half_length.avi,synth47_half_length.wav,synth,4,8.18571429999974,0,19,70,51,140,184,2,2,5,4.699953575,55.8186209066667,11206.2510559
19,10,2,NoFlickerFull,166,1227_half_amp.avi,ep5_half_amp.wav,ep,4,7.40884599999845,1,19,87,25,177,166,4,9,5,4.699953575,55.8186209066667,11217.2922725
19,11,2,NoFlickerFull,184,1052_half_amp.avi,synth40_half_amp.wav,synth,3,8.49901479999971,0,19,140,51,70,184,4,6,1,4.699953575,55.8186209066667,11226.3919255
19,12,2,NoFlickerHalf,70,1093_half_length.avi,synth6_half_length.wav,synth,2,5.03097250000064,0,19,70,51,184,140,1,1,3,4.699953575,55.8186209066667,11238.3914383
19,13,2,NoFlickerFull,177,1283_half_amp.avi,ep38_half_amp.wav,ep,2,6.23774740000044,1,19,166,177,87,25,2,12,3,4.699953575,55.8186209066667,11246.1248721
19,14,2,NoFlickerHalf,25,1094_half_length.avi,ep15_half_length.wav,ep,4,3.41351589999977,1,19,166,177,87,25,4,14,3,4.699953575,55.8186209066667,11255.5326552
19,15,2,NoFlickerHalf,53,1197_half_length.avi,guitar46_half_length.wav,guitar,3,6.29148069999974,1,19,112,7,53,179,3,8,3,4.699953575,55.8186209066667,11261.2658439
19,16,2,NoFlickerFull,179,1186_half_amp.avi,guitar30_half_amp.wav,guitar,4,5.08649440000045,1,19,112,53,7,179,4,10,4,4.699953575,55.8186209066667,11269.5490213
19,1,3,NoFlickerHalf,3,1156_half_length.avi,guitar31_half_length.wav,guitar,3,8.46084840000003,1,19,172,93,3,185,3,7,3,4.63799614666667,55.8186209066667,11427.8858615
19,2,3,NoFlickerHalf,108,1415_half_length.avi,willow3_half_length.wav,willow,1,6.5009409000013,1,19,108,167,66,118,1,5,2,4.63799614666667,55.8186209066667,11438.7106283
19,3,3,NoFlickerHalf,66,1215_half_length.avi,willow18_half_length.wav,willow,3,9.64637330000005,0,19,118,108,167,66,4,15,5,4.63799614666667,55.8186209066667,11447.893738
19,4,3,NoFlickerFull,118,1020_half_amp.avi,willow22_half_amp.wav,willow,1,4.46207099999992,0,19,66,167,108,118,4,1,3,4.63799614666667,55.8186209066667,11459.7099566
19,5,3,NoFlickerFull,167,1177_half_amp.avi,willow24_half_amp.wav,willow,2,3.56390379999903,0,19,108,118,167,66,3,11,1,4.63799614666667,55.8186209066667,11466.8930923
19,6,3,NoFlickerHalf,93,1046_half_length.avi,guitar18_half_length.wav,guitar,1,2.77025409999987,0,19,185,3,93,172,3,13,2,4.63799614666667,55.8186209066667,11472.2596099
19,7,3,NoFlickerFull,125,1050_half_amp.avi,synth36_half_amp.wav,synth,4,4.71600310000031,1,19,131,89,61,125,4,16,3,4.63799614666667,55.8186209066667,11478.5844757
19,8,3,NoFlickerHalf,6,1007_half_length.avi,ep8_half_length.wav,ep,3,5.74513519999891,0,19,101,123,144,6,4,4,4,4.63799614666667,55.8186209066667,11485.675907
19,9,3,NoFlickerHalf,89,1393_half_length.avi,synth41_half_length.wav,synth,4,5.53980939999929,0,19,89,131,125,61,1,10,2,4.63799614666667,55.8186209066667,11493.550606
19,10,3,NoFlickerFull,144,1255_half_amp.avi,ep28_half_amp.wav,ep,1,4.18217110000114,0,19,101,123,144,6,3,2,4,4.63799614666667,55.8186209066667,11502.2837692
19,11,3,NoFlickerFull,131,1366_half_amp.avi,synth34_half_amp.wav,synth,1,4.12489920000007,1,19,131,125,61,89,1,14,3,4.63799614666667,55.8186209066667,11509.3169364
19,12,3,NoFlickerHalf,61,1207_half_length.avi,synth46_half_length.wav,synth,2,3.02936120000049,0,19,61,89,125,131,1,6,2,4.63799614666667,55.8186209066667,11516.1249396
19,13,3,NoFlickerFull,123,1067_half_amp.avi,ep37_half_amp.wav,ep,1,3.90680590000011,1,19,123,101,6,144,1,3,5,4.63799614666667,55.8186209066667,11522.3497923
19,14,3,NoFlickerHalf,101,1295_half_length.avi,ep40_half_length.wav,ep,4,8.74815070000113,1,19,123,6,144,101,4,9,4,4.63799614666667,55.8186209066667,11529.5079632
19,15,3,NoFlickerFull,172,1350_half_amp.avi,guitar10_half_amp.wav,guitar,2,4.47689170000012,0,19,172,93,185,3,1,8,4,4.63799614666667,55.8186209066667,11541.790936
19,16,3,NoFlickerFull,185,1131_half_amp.avi,guitar45_half_amp.wav,guitar,1,4.09417650000069,0,19,3,93,172,185,4,12,1,4.63799614666667,55.8186209066667,11548.9993063
19,1,4,SyncTheta,13,1201_4Hz.avi,choir7_zero_4Hz.wav,choir,3,15.7721431999998,0,19,52,78,88,13,4,7,1,4.82004605666667,55.8186209066667,11705.469643
19,2,4,AsyncTheta,188,1036_4Hz.avi,orch26_oneeighty_4Hz.wav,orch,3,5.5338073999992,0,19,57,188,33,158,2,6,3,4.82004605666667,55.8186209066667,11724.2107505
19,3,4,SyncTheta,57,1309_4Hz.avi,orch7_zero_4Hz.wav,orch,4,5.48226220000106,0,19,158,57,33,188,2,16,4,4.82004605666667,55.8186209066667,11733.3019689
19,4,4,SyncTheta,33,1136_4Hz.avi,orch38_zero_4Hz.wav,orch,3,4.28688829999919,0,19,158,188,57,33,4,2,3,4.82004605666667,55.8186209066667,11741.0101873
19,5,4,AsyncTheta,158,1206_4Hz.avi,orch6_oneeighty_4Hz.wav,orch,1,4.08025839999937,0,19,57,188,158,33,3,15,2,4.82004605666667,55.8186209066667,11747.9517039
19,6,4,AsyncTheta,88,1191_4Hz.avi,choir20_oneeighty_4Hz.wav,choir,1,6.80838789999871,0,19,78,52,13,88,4,14,2,4.82004605666667,55.8186209066667,11755.259851
19,7,4,SyncTheta,80,1082_4Hz.avi,dar15_zero_4Hz.wav,dar,2,10.0163470999996,0,19,147,34,80,136,3,13,3,4.82004605666667,55.8186209066667,11763.6594624
19,8,4,SyncTheta,60,1249_4Hz.avi,acoustic20_zero_4Hz.wav,acoustic,1,4.12922210000033,0,19,175,20,60,104,3,4,3,4.82004605666667,55.8186209066667,11776.9007303
19,9,4,AsyncTheta,147,1304_4Hz.avi,dar10_oneeighty_4Hz.wav,dar,1,5.2826868000011,1,19,147,80,34,136,1,9,2,4.82004605666667,55.8186209066667,11783.1088833
19,10,4,AsyncTheta,175,1103_4Hz.avi,acoustic10_oneeighty_4Hz.wav,acoustic,1,7.01367100000061,0,19,20,60,175,104,3,1,4,4.82004605666667,55.8186209066667,11791.9086342
19,11,4,SyncTheta,34,1319_4Hz.avi,dar22_zero_4Hz.wav,dar,3,4.33671329999925,0,19,147,34,136,80,2,10,3,4.82004605666667,55.8186209066667,11800.5250156
19,12,4,AsyncTheta,136,1175_4Hz.avi,dar4_oneeighty_4Hz.wav,dar,4,3.90717260000019,0,19,136,80,147,34,1,5,4,4.82004605666667,55.8186209066667,11806.7498248
19,13,4,SyncTheta,20,1236_4Hz.avi,acoustic25_zero_4Hz.wav,acoustic,1,6.48565539999981,0,19,104,20,175,60,2,3,5,4.82004605666667,55.8186209066667,11812.5330094
19,14,4,AsyncTheta,104,1111_4Hz.avi,acoustic31_oneeighty_4Hz.wav,acoustic,3,4.19377520000126,0,19,175,104,60,20,2,8,5,4.82004605666667,55.8186209066667,11821.64116
19,15,4,SyncTheta,52,1387_4Hz.avi,choir2_zero_4Hz.wav,choir,1,5.75135349999982,1,19,52,78,88,13,1,11,3,4.82004605666667,55.8186209066667,11827.9076052
19,16,4,AsyncTheta,78,1301_4Hz.avi,choir11_oneeighty_4Hz.wav,choir,2,5.57455699999991,0,19,52,13,88,78,4,12,4,4.82004605666667,55.8186209066667,11836.9408421
19,1,5,SyncTheta,11,1448_4Hz.avi,choir36_zero_4Hz.wav,choir,2,6.37971119999929,1,19,10,11,159,181,2,4,3,4.92354977,55.8186209066667,12014.2939793
19,2,5,AsyncTheta,143,1127_4Hz.avi,orch11_oneeighty_4Hz.wav,orch,1,4.88020919999872,0,19,28,143,85,134,2,6,2,4.92354977,55.8186209066667,12023.4019356
19,3,5,AsyncTheta,134,1026_4Hz.avi,orch16_oneeighty_4Hz.wav,orch,2,4.22339569999895,0,19,28,85,134,143,3,12,4,4.92354977,55.8186209066667,12031.2684281
19,4,5,SyncTheta,28,1148_4Hz.avi,orch19_zero_4Hz.wav,orch,3,3.95585100000062,0,19,143,28,134,85,2,5,2,4.92354977,55.8186209066667,12037.2348936
19,5,5,SyncTheta,85,1383_4Hz.avi,orch23_zero_4Hz.wav,orch,2,4.26397830000133,0,19,28,143,85,134,3,10,3,4.92354977,55.8186209066667,12044.1680566
19,6,5,SyncTheta,10,1179_4Hz.avi,choir4_zero_4Hz.wav,choir,1,5.80479509999896,0,19,181,159,11,10,4,15,4,4.92354977,55.8186209066667,12050.6428811
19,7,5,SyncTheta,14,1416_4Hz.avi,dar1_zero_4Hz.wav,dar,2,6.63199830000121,0,19,126,64,103,14,4,9,1,4.92354977,55.8186209066667,12058.1176798
19,8,5,AsyncTheta,83,1139_4Hz.avi,acoustic27_oneeighty_4Hz.wav,acoustic,2,4.32743289999962,0,19,5,47,190,83,4,14,3,4.92354977,55.8186209066667,12067.4173495
19,9,5,SyncTheta,64,1098_4Hz.avi,dar11_zero_4Hz.wav,dar,2,4.69489019999855,0,19,14,103,64,126,3,2,4,4.92354977,55.8186209066667,12074.6088598
19,10,5,SyncTheta,47,1292_4Hz.avi,acoustic28_zero_4Hz.wav,acoustic,4,4.87165830000049,0,19,47,83,190,5,1,3,1,4.92354977,55.8186209066667,12081.3586746
19,11,5,AsyncTheta,126,1298_4Hz.avi,dar9_oneeighty_4Hz.wav,dar,3,5.38225640000019,0,19,103,126,14,64,2,8,2,4.92354977,55.8186209066667,12088.0918005
19,12,5,AsyncTheta,103,1084_4Hz.avi,dar20_oneeighty_4Hz.wav,dar,3,4.89275749999979,0,19,64,14,126,103,4,1,2,4.92354977,55.8186209066667,12096.3082384
19,13,5,SyncTheta,5,1381_4Hz.avi,acoustic1_zero_4Hz.wav,acoustic,2,5.80378390000078,0,19,5,190,47,83,1,13,2,4.92354977,55.8186209066667,12103.5580197
19,14,5,AsyncTheta,190,1427_4Hz.avi,acoustic46_oneeighty_4Hz.wav,acoustic,4,3.78904789999979,0,19,5,47,190,83,3,16,5,4.92354977,55.8186209066667,12112.6660918
19,15,5,AsyncTheta,159,1091_4Hz.avi,choir8_oneeighty_4Hz.wav,choir,4,11.3019082999999,1,19,181,10,11,159,4,7,3,4.92354977,55.8186209066667,12119.2742325
19,16,5,AsyncTheta,181,1168_4Hz.avi,choir1_oneeighty_4Hz.wav,choir,1,5.69494049999957,0,19,11,10,181,159,3,11,5,4.92354977,55.8186209066667,12132.4322401
19,1,6,NoFlickerFull,170,1062_half_amp.avi,guitar3_half_amp.wav,guitar,4,13.530913999999,1,19,73,146,59,170,4,9,4,4.2784318,55.8186209066667,12279.0698054
19,2,6,NoFlickerHalf,92,1030_half_length.avi,willow23_half_length.wav,willow,4,7.50050270000065,0,19,55,92,152,119,2,5,1,4.2784318,55.8186209066667,12295.4695681
19,3,6,NoFlickerHalf,55,1044_half_length.avi,willow4_half_length.wav,willow,4,2.5775149000001,1,19,152,92,119,55,4,11,3,4.2784318,55.8186209066667,12305.4859676
19,4,6,NoFlickerFull,152,1445_half_amp.avi,willow2_half_amp.wav,willow,1,3.82538920000115,1,19,152,119,55,92,1,2,3,4.2784318,55.8186209066667,12310.4941537
19,5,6,NoFlickerFull,119,1189_half_amp.avi,willow11_half_amp.wav,willow,4,4.14958099999967,0,19,152,119,55,92,2,7,4,4.2784318,55.8186209066667,12317.3604655
19,6,6,NoFlickerHalf,73,1369_half_length.avi,guitar19_half_length.wav,guitar,1,4.6295781000008,1,19,73,170,59,146,1,16,2,4.2784318,55.8186209066667,12323.4436622
19,7,6,NoFlickerFull,129,1286_half_amp.avi,synth30_half_amp.wav,synth,1,2.9869247000006,1,19,129,35,135,71,1,14,5,4.2784318,55.8186209066667,12330.7017311
19,8,6,NoFlickerHalf,65,1013_half_length.avi,ep22_half_length.wav,ep,4,5.14507129999947,0,19,132,65,16,176,2,4,3,4.2784318,55.8186209066667,12337.168473
19,9,6,NoFlickerHalf,35,1039_half_length.avi,synth5_half_length.wav,synth,2,3.40364149999914,1,19,71,35,135,129,2,8,2,4.2784318,55.8186209066667,12345.626517
19,10,6,NoFlickerHalf,16,1442_half_length.avi,ep34_half_length.wav,ep,1,4.86239380000006,1,19,16,65,132,176,1,1,4,4.2784318,55.8186209066667,12351.401162
19,11,6,NoFlickerHalf,71,1076_half_length.avi,synth21_half_length.wav,synth,1,3.60031190000154,0,19,135,129,71,35,3,12,1,4.2784318,55.8186209066667,12359.5676333
19,12,6,NoFlickerFull,135,1154_half_amp.avi,synth38_half_amp.wav,synth,4,2.85323529999914,0,19,129,135,35,71,2,6,2,4.2784318,55.8186209066667,12365.6840972
19,13,6,NoFlickerFull,132,1356_half_amp.avi,ep30_half_amp.wav,ep,3,7.24120360000052,0,19,16,176,65,132,4,3,5,4.2784318,55.8186209066667,12370.3758647
19,14,6,NoFlickerFull,176,1405_half_amp.avi,ep46_half_amp.wav,ep,3,4.38192100000015,0,19,16,176,132,65,2,10,2,4.2784318,55.8186209066667,12379.9504316
19,15,6,NoFlickerHalf,59,1346_half_length.avi,guitar33_half_length.wav,guitar,2,3.29837330000009,1,19,146,59,73,170,2,13,4,4.2784318,55.8186209066667,12386.1668926
19,16,6,NoFlickerFull,146,1005_half_amp.avi,guitar14_half_amp.wav,guitar,2,3.65984329999992,1,19,59,146,170,73,2,15,1,4.2784318,55.8186209066667,12391.3582934
19,1,7,NoFlickerFull,161,1433_half_amp.avi,guitar2_half_amp.wav,guitar,3,4.62790489999861,0,19,168,77,46,161,4,1,3,4.15735891666667,55.8186209066667,12537.1129003
19,2,7,NoFlickerFull,178,1057_half_amp.avi,willow9_half_amp.wav,willow,4,4.29745729999922,0,19,94,178,18,153,2,4,2,4.15735891666667,55.8186209066667,12543.3543991
19,3,7,NoFlickerHalf,94,1109_half_length.avi,willow6_half_length.wav,willow,2,3.81759229999989,1,19,178,94,18,153,2,8,4,4.15735891666667,55.8186209066667,12549.853919
19,4,7,NoFlickerHalf,18,1101_half_length.avi,willow13_half_length.wav,willow,4,4.17303840000022,1,19,153,178,94,18,4,3,4,4.15735891666667,55.8186209066667,12556.6037319
19,5,7,NoFlickerFull,153,1157_half_amp.avi,willow1_half_amp.wav,willow,1,3.29315289999977,0,19,18,94,153,178,3,5,3,4.15735891666667,55.8186209066667,12563.7703069
19,6,7,NoFlickerFull,168,1204_half_amp.avi,guitar36_half_amp.wav,guitar,1,7.72265189999962,0,19,77,46,161,168,4,16,4,4.15735891666667,55.8186209066667,12569.3867162
19,7,7,NoFlickerHalf,50,1049_half_length.avi,synth43_half_length.wav,synth,3,3.68066709999948,1,19,100,186,50,127,3,15,2,4.15735891666667,55.8186209066667,12579.6697852
19,8,7,NoFlickerFull,150,1394_half_amp.avi,ep11_half_amp.wav,ep,4,4.51078749999942,0,19,150,138,86,99,1,11,3,4.15735891666667,55.8186209066667,12586.8865303
19,9,7,NoFlickerHalf,100,1107_half_length.avi,synth23_half_length.wav,synth,4,5.09052859999974,1,19,186,127,50,100,4,10,2,4.15735891666667,55.8186209066667,12594.6529739
19,10,7,NoFlickerFull,138,1149_half_amp.avi,ep2_half_amp.wav,ep,4,5.30645989999903,1,19,150,99,86,138,4,2,5,4.15735891666667,55.8186209066667,12601.7192522
19,11,7,NoFlickerFull,127,1411_half_amp.avi,synth28_half_amp.wav,synth,4,3.35992110000007,1,19,50,100,186,127,4,12,2,4.15735891666667,55.8186209066667,12609.6942258
19,12,7,NoFlickerFull,186,1031_half_amp.avi,synth7_half_amp.wav,synth,3,3.32531910000034,0,19,186,50,100,127,1,9,2,4.15735891666667,55.8186209066667,12615.5274027
19,13,7,NoFlickerHalf,99,1173_half_length.avi,ep6_half_length.wav,ep,1,5.61496440000155,0,19,150,99,138,86,2,6,2,4.15735891666667,55.8186209066667,12622.3602454
19,14,7,NoFlickerHalf,86,1278_half_length.avi,ep35_half_length.wav,ep,4,3.45419030000085,1,19,138,99,150,86,4,14,3,4.15735891666667,55.8186209066667,12629.685182
19,15,7,NoFlickerHalf,46,1210_half_length.avi,guitar48_half_length.wav,guitar,2,4.19782639999903,0,19,161,168,77,46,4,7,3,4.15735891666667,55.8186209066667,12635.4768569
19,16,7,NoFlickerHalf,77,1008_half_length.avi,guitar42_half_length.wav,guitar,4,3.30512839999938,0,19,77,168,46,161,1,13,4,4.15735891666667,55.8186209066667,12641.3683588
19,1,8,SyncTheta,38,1184_4Hz.avi,choir33_zero_4Hz.wav,choir,2,11.9016983999991,0,19,68,121,38,76,3,7,2,4.67364043666667,55.8186209066667,12805.1971441
19,2,8,AsyncTheta,141,1401_4Hz.avi,orch12_oneeighty_4Hz.wav,orch,3,4.70521820000067,0,19,91,165,81,141,4,3,3,4.67364043666667,55.8186209066667,12820.1548742
19,3,8,AsyncTheta,165,1410_4Hz.avi,orch43_oneeighty_4Hz.wav,orch,4,4.29072919999999,0,19,141,165,81,91,2,8,1,4.67364043666667,55.8186209066667,12828.2713409
19,4,8,SyncTheta,81,1444_4Hz.avi,orch4_zero_4Hz.wav,orch,3,4.10664870000073,0,19,165,81,141,91,2,2,3,4.67364043666667,55.8186209066667,12835.6877057
19,5,8,SyncTheta,91,1340_4Hz.avi,orch46_zero_4Hz.wav,orch,2,4.61660140000095,0,19,81,165,91,141,3,6,3,4.67364043666667,55.8186209066667,12841.7378144
19,6,8,AsyncTheta,121,1354_4Hz.avi,choir22_oneeighty_4Hz.wav,choir,4,5.81850010000016,0,19,38,121,76,68,2,14,3,4.67364043666667,55.8186209066667,12848.528997
19,7,8,SyncTheta,49,1221_4Hz.avi,dar21_zero_4Hz.wav,dar,2,3.71709850000116,1,19,191,49,40,116,2,16,2,4.67364043666667,55.8186209066667,12856.2787708
19,8,8,SyncTheta,9,1054_4Hz.avi,acoustic44_zero_4Hz.wav,acoustic,2,4.98612200000025,0,19,1,148,107,9,4,12,4,4.67364043666667,55.8186209066667,12863.2286975
19,9,8,AsyncTheta,191,1314_4Hz.avi,dar19_oneeighty_4Hz.wav,dar,3,5.47598909999942,0,19,49,191,116,40,2,4,3,4.67364043666667,55.8186209066667,12871.1953084
19,10,8,AsyncTheta,148,1121_4Hz.avi,acoustic26_oneeighty_4Hz.wav,acoustic,3,3.87990569999965,0,19,9,148,1,107,2,5,5,4.67364043666667,55.8186209066667,12880.1780776
19,11,8,AsyncTheta,116,1420_4Hz.avi,dar18_oneeighty_4Hz.wav,dar,4,7.2785942999999,0,19,49,191,116,40,3,10,4,4.67364043666667,55.8186209066667,12887.0448529
19,12,8,SyncTheta,40,1239_4Hz.avi,dar6_zero_4Hz.wav,dar,4,4.06341789999897,0,19,40,49,116,191,1,1,2,4.67364043666667,55.8186209066667,12897.7026222
19,13,8,AsyncTheta,107,1265_4Hz.avi,acoustic16_oneeighty_4Hz.wav,acoustic,2,3.91953009999997,1,19,9,107,148,1,2,11,2,4.67364043666667,55.8186209066667,12903.5357992
19,14,8,SyncTheta,1,1064_4Hz.avi,acoustic12_zero_4Hz.wav,acoustic,1,4.52204100000017,0,19,9,1,107,148,2,15,5,4.67364043666667,55.8186209066667,12909.1273526
19,15,8,SyncTheta,68,1023_4Hz.avi,choir3_zero_4Hz.wav,choir,2,3.42912660000002,0,19,68,76,38,121,1,9,1,4.67364043666667,55.8186209066667,12915.79386
19,16,8,AsyncTheta,76,1293_4Hz.avi,choir23_oneeighty_4Hz.wav,choir,3,4.27575510000133,0,19,68,121,38,76,4,13,2,4.67364043666667,55.8186209066667,12921.0436655
19,1,9,SyncTheta,19,1247_4Hz.avi,choir38_zero_4Hz.wav,choir,2,6.74320850000004,1,19,62,19,98,97,2,8,2,4.84841346,55.8186209066667,13093.213854
19,2,9,AsyncTheta,110,1443_4Hz.avi,orch3_oneeighty_4Hz.wav,orch,4,6.22935090000101,0,19,102,145,110,74,3,5,5,4.84841346,55.8186209066667,13102.6387554
19,3,9,SyncTheta,102,1012_4Hz.avi,orch18_zero_4Hz.wav,orch,2,3.93145170000025,0,19,145,110,102,74,3,15,1,4.84841346,55.8186209066667,13111.6468401
19,4,9,SyncTheta,74,1337_4Hz.avi,orch24_zero_4Hz.wav,orch,4,3.78955469999892,0,19,110,145,74,102,3,2,3,4.84841346,55.8186209066667,13118.0463593
19,5,9,AsyncTheta,145,1352_4Hz.avi,orch39_oneeighty_4Hz.wav,orch,4,5.79244710000057,1,19,110,74,102,145,4,9,3,4.84841346,55.8186209066667,13125.3378567
19,6,9,SyncTheta,62,1058_4Hz.avi,choir19_zero_4Hz.wav,choir,4,9.68174529999851,1,19,97,98,19,62,4,13,2,4.84841346,55.8186209066667,13133.3543155
19,7,9,AsyncTheta,114,1322_4Hz.avi,dar14_oneeighty_4Hz.wav,dar,3,6.28613910000058,1,19,82,45,114,56,3,16,1,4.84841346,55.8186209066667,13146.1039637
19,8,9,AsyncTheta,113,1037_4Hz.avi,acoustic23_oneeighty_4Hz.wav,acoustic,3,4.38797410000006,0,19,113,58,4,169,1,6,2,4.84841346,55.8186209066667,13155.7205687
19,9,9,SyncTheta,45,1203_4Hz.avi,dar2_zero_4Hz.wav,dar,2,4.74284609999995,0,19,56,82,45,114,3,7,3,4.84841346,55.8186209066667,13162.3951877
19,10,9,AsyncTheta,169,1083_4Hz.avi,acoustic43_oneeighty_4Hz.wav,acoustic,2,3.88486370000101,1,19,58,169,4,113,2,1,5,4.84841346,55.8186209066667,13170.7533462
19,11,9,AsyncTheta,82,1449_4Hz.avi,dar17_oneeighty_4Hz.wav,dar,1,7.82496680000077,1,19,82,114,56,45,1,11,3,4.84841346,55.8186209066667,13177.3199639
19,12,9,SyncTheta,56,1063_4Hz.avi,dar16_zero_4Hz.wav,dar,1,4.20133109999915,1,19,56,45,114,82,1,4,2,4.84841346,55.8186209066667,13188.4026842
19,13,9,SyncTheta,4,1167_4Hz.avi,acoustic37_zero_4Hz.wav,acoustic,1,3.78555580000102,0,19,113,4,169,58,2,3,5,4.84841346,55.8186209066667,13196.0110988
19,14,9,SyncTheta,58,1323_4Hz.avi,acoustic29_zero_4Hz.wav,acoustic,1,3.42126989999997,1,19,58,113,169,4,1,14,4,4.84841346,55.8186209066667,13201.7192673
19,15,9,AsyncTheta,97,1368_4Hz.avi,choir30_oneeighty_4Hz.wav,choir,4,3.91649400000097,1,19,19,62,98,97,4,10,4,4.84841346,55.8186209066667,13206.8522449
19,16,9,AsyncTheta,98,1014_4Hz.avi,choir41_oneeighty_4Hz.wav,choir,2,3.67536180000025,0,19,97,19,62,98,4,12,4,4.84841346,55.8186209066667,13212.7856454
19,1,10,NoFlickerFull,183,1374_half_amp.avi,guitar16_half_amp.wav,guitar,2,6.74227400000018,1,19,164,183,15,67,2,2,2,4.34645836666667,55.8186209066667,13369.0891771
19,2,10,NoFlickerFull,120,1365_half_amp.avi,willow21_half_amp.wav,willow,3,4.2075633000004,0,19,130,120,32,37,2,6,2,4.34645836666667,55.8186209066667,13378.1975279
19,3,10,NoFlickerFull,130,1081_half_amp.avi,willow5_half_amp.wav,willow,2,3.70206340000004,1,19,32,130,37,120,2,11,4,4.34645836666667,55.8186209066667,13384.8138467
19,4,10,NoFlickerHalf,37,1237_half_length.avi,willow15_half_length.wav,willow,2,3.20350950000102,1,19,32,37,120,130,2,1,4,4.34645836666667,55.8186209066667,13391.8054906
19,5,10,NoFlickerHalf,32,1360_half_length.avi,willow10_half_length.wav,willow,4,3.12675050000144,0,19,37,130,32,120,3,7,1,4.34645836666667,55.8186209066667,13398.4136238
19,6,10,NoFlickerHalf,15,1422_half_length.avi,guitar37_half_length.wav,guitar,1,4.94564729999911,1,19,15,164,183,67,1,12,2,4.34645836666667,55.8186209066667,13403.5299233
19,7,10,NoFlickerFull,163,1441_half_amp.avi,synth27_half_amp.wav,synth,1,5.47306290000051,1,19,163,54,8,111,1,16,1,4.34645836666667,55.8186209066667,13411.3799207
19,8,10,NoFlickerHalf,106,1113_half_length.avi,ep29_half_length.wav,ep,2,4.53452559999823,0,19,106,180,41,189,1,13,3,4.34645836666667,55.8186209066667,13420.2296729
19,9,10,NoFlickerHalf,8,1252_half_length.avi,synth25_half_length.wav,synth,3,3.73915660000057,0,19,8,111,54,163,1,4,3,4.34645836666667,55.8186209066667,13426.3043225
19,10,10,NoFlickerFull,189,1051_half_amp.avi,ep14_half_amp.wav,ep,4,4.50580590000027,1,19,106,41,180,189,4,8,3,4.34645836666667,55.8186209066667,13432.8790175
19,11,10,NoFlickerHalf,54,1181_half_length.avi,synth12_half_length.wav,synth,4,2.71690330000092,0,19,163,54,111,8,2,14,1,4.34645836666667,55.8186209066667,13440.8455072
19,12,10,NoFlickerFull,111,1390_half_amp.avi,synth3_half_amp.wav,synth,2,5.38966729999993,1,19,8,111,163,54,2,3,5,4.34645836666667,55.8186209066667,13445.6955592
19,13,10,NoFlickerHalf,41,1132_half_length.avi,ep10_half_length.wav,ep,4,2.99000280000109,0,19,189,180,41,106,3,10,2,4.34645836666667,55.8186209066667,13454.0201516
19,14,10,NoFlickerFull,180,1006_half_amp.avi,ep4_half_amp.wav,ep,4,3.57723879999867,0,19,189,180,106,41,2,15,2,4.34645836666667,55.8186209066667,13460.1782371
19,15,10,NoFlickerHalf,67,1310_half_length.avi,guitar21_half_length.wav,guitar,4,4.2878109000012,0,19,15,183,67,164,3,5,3,4.34645836666667,55.8186209066667,13466.2281515
19,16,10,NoFlickerFull,164,1087_half_amp.avi,guitar17_half_amp.wav,guitar,2,4.22124029999941,1,19,183,164,67,15,2,9,3,4.34645836666667,55.8186209066667,13473.2779123
19,1,11,NoFlickerHalf,90,1273_half_length.avi,guitar23_half_length.wav,guitar,3,10.4760170999998,0,19,90,84,151,115,1,6,3,4.10744466833333,55.8186209066667,13618.923964
19,2,11,NoFlickerHalf,27,1202_half_length.avi,willow16_half_length.wav,willow,3,4.44769939999969,0,19,27,48,171,156,1,4,2,4.10744466833333,55.8186209066667,13632.0400699
19,3,11,NoFlickerHalf,48,1021_half_length.avi,willow12_half_length.wav,willow,4,3.54985619999934,0,19,171,48,156,27,2,16,4,4.10744466833333,55.8186209066667,13638.198216
19,4,11,NoFlickerFull,171,1280_half_amp.avi,willow19_half_amp.wav,willow,1,3.7771034999987,0,19,156,171,48,27,2,3,3,4.10744466833333,55.8186209066667,13644.0899124
19,5,11,NoFlickerFull,156,1060_half_amp.avi,willow7_half_amp.wav,willow,1,2.92705799999931,0,19,48,156,27,171,2,11,5,4.10744466833333,55.8186209066667,13651.073047
19,6,11,NoFlickerFull,151,1259_half_amp.avi,guitar43_half_amp.wav,guitar,4,4.6464816000007,0,19,90,151,84,115,2,12,3,4.10744466833333,55.8186209066667,13656.4892836
19,7,11,NoFlickerHalf,95,1359_half_length.avi,synth33_half_length.wav,synth,4,2.42818639999859,1,19,155,109,128,95,4,8,1,4.10744466833333,55.8186209066667,13664.0726642
19,8,11,NoFlickerFull,173,1348_half_amp.avi,ep31_half_amp.wav,ep,4,4.09437359999902,0,19,24,26,173,117,3,14,4,4.10744466833333,55.8186209066667,13669.1725127
19,9,11,NoFlickerFull,128,1269_half_amp.avi,synth14_half_amp.wav,synth,2,4.59059320000051,0,19,109,155,95,128,4,2,1,4.10744466833333,55.8186209066667,13675.5638688
19,10,11,NoFlickerFull,117,1144_half_amp.avi,ep39_half_amp.wav,ep,4,4.04571920000126,0,19,117,26,173,24,1,7,5,4.10744466833333,55.8186209066667,13683.6801069
19,11,11,NoFlickerHalf,109,1299_half_length.avi,synth18_half_length.wav,synth,2,2.6739378000002,0,19,109,128,155,95,1,5,4,4.10744466833333,55.8186209066667,13690.4216503
19,12,11,NoFlickerFull,155,1042_half_amp.avi,synth10_half_amp.wav,synth,2,4.29569029999948,0,19,155,109,95,128,1,1,3,4.10744466833333,55.8186209066667,13695.9300949
19,13,11,NoFlickerHalf,24,1217_half_length.avi,ep44_half_length.wav,ep,4,2.82333269999981,0,19,117,24,26,173,2,13,4,4.10744466833333,55.8186209066667,13702.3215739
19,14,11,NoFlickerHalf,26,1190_half_length.avi,ep7_half_length.wav,ep,4,2.49535250000008,1,19,24,117,173,26,4,15,3,4.10744466833333,55.8186209066667,13708.5547182
19,15,11,NoFlickerFull,115,1370_half_amp.avi,guitar9_half_amp.wav,guitar,1,3.58973520000109,0,19,84,90,151,115,4,9,2,4.10744466833333,55.8186209066667,13714.2294087
19,16,11,NoFlickerHalf,84,1294_half_length.avi,guitar6_half_length.wav,guitar,1,3.94808939999893,0,19,90,151,84,115,3,10,2,4.10744466833333,55.8186209066667,13720.2543867
19,1,12,SyncTheta,12,1077_4Hz.avi,choir18_zero_4Hz.wav,choir,2,4.93496719999894,0,19,12,124,72,182,1,1,4,4.22635620666667,55.8186209066667,13873.1000148
19,2,12,SyncTheta,36,1284_4Hz.avi,orch29_zero_4Hz.wav,orch,1,4.27073399999972,1,19,36,174,17,192,1,7,2,4.22635620666667,55.8186209066667,13880.1078921
19,3,12,SyncTheta,17,1162_4Hz.avi,orch1_zero_4Hz.wav,orch,3,3.92480570000043,0,19,174,17,192,36,2,16,3,4.22635620666667,55.8186209066667,13886.7329546
19,4,12,AsyncTheta,174,1119_4Hz.avi,orch45_oneeighty_4Hz.wav,orch,2,3.29235379999955,0,19,192,17,36,174,4,4,3,4.22635620666667,55.8186209066667,13892.7827868
19,5,12,AsyncTheta,192,1231_4Hz.avi,orch32_oneeighty_4Hz.wav,orch,4,3.88428170000043,0,19,192,174,36,17,1,8,2,4.22635620666667,55.8186209066667,13899.0406523
19,6,12,AsyncTheta,182,1277_4Hz.avi,choir39_oneeighty_4Hz.wav,choir,3,6.46893079999973,1,19,124,72,182,12,3,11,2,4.22635620666667,55.8186209066667,13905.8904643
19,7,12,SyncTheta,43,1141_4Hz.avi,dar13_zero_4Hz.wav,dar,3,5.52643410000019,0,19,2,162,122,43,4,14,2,4.22635620666667,55.8186209066667,13915.9568054
19,8,12,AsyncTheta,133,1341_4Hz.avi,acoustic14_oneeighty_4Hz.wav,acoustic,3,4.26522070000101,0,19,79,44,23,133,4,13,5,4.22635620666667,55.8186209066667,13923.5482844
19,9,12,AsyncTheta,162,1358_4Hz.avi,dar7_oneeighty_4Hz.wav,dar,2,4.71577290000096,1,19,2,162,43,122,2,9,4,4.22635620666667,55.8186209066667,13931.1483753
19,10,12,AsyncTheta,79,1071_4Hz.avi,acoustic17_oneeighty_4Hz.wav,acoustic,3,4.55496459999995,0,19,133,23,44,79,4,3,4,4.22635620666667,55.8186209066667,13937.9562492
19,11,12,SyncTheta,2,1431_4Hz.avi,dar24_zero_4Hz.wav,dar,4,4.55793360000098,1,19,43,162,122,2,4,12,4,4.22635620666667,55.8186209066667,13944.4644037
19,12,12,AsyncTheta,122,1289_4Hz.avi,dar3_oneeighty_4Hz.wav,dar,4,4.13093020000088,1,19,162,43,2,122,4,5,3,4.22635620666667,55.8186209066667,13951.1060036
19,13,12,SyncTheta,23,1330_4Hz.avi,acoustic47_zero_4Hz.wav,acoustic,2,3.5763476000011,0,19,23,44,79,133,1,6,5,4.22635620666667,55.8186209066667,13957.4806973
19,14,12,SyncTheta,44,1254_4Hz.avi,acoustic48_zero_4Hz.wav,acoustic,4,3.08649429999969,1,19,23,133,79,44,4,15,3,4.22635620666667,55.8186209066667,13963.3305476
19,15,12,SyncTheta,72,1097_4Hz.avi,choir29_zero_4Hz.wav,choir,1,4.01974379999956,1,19,72,12,182,124,1,2,5,4.22635620666667,55.8186209066667,13968.3137625
19,16,12,AsyncTheta,124,1183_4Hz.avi,choir24_oneeighty_4Hz.wav,choir,3,3.87273949999872,0,19,124,72,182,12,1,10,3,4.22635620666667,55.8186209066667,13974.1721269
