ParticipantID,TrialNumber,BlockNumber,Condition,ClipID,VideoFile,SoundFile,SoundCategory,Response,RT,Accuracy,ConditionID,Frame1,Frame2,Frame3,Frame4,CorrectKey,EncodingPosition,Rating,BlockDuration,ExperimentDuration,MemoryTestOnset
38,1,1,SyncTheta,29,1158_4Hz.avi,dar23_zero_4Hz.wav,dar,3,11.0379568436183,1,5,31,154,29,187,3,11,2,5.34904808166667,68.97930408,1123723.88392776
38,2,1,SyncTheta,63,1128_4Hz.avi,choir26_zero_4Hz.wav,choir,2,6.30019201198593,0,5,160,69,63,139,3,12,2,5.34904808166667,68.97930408,1123737.03391479
38,3,1,AsyncTheta,137,1303_4Hz.avi,orch10_oneeighty_4Hz.wav,orch,2,5.52008580509573,1,5,30,137,142,42,2,10,3,5.34904808166667,68.97930408,1123745.80071249
38,4,1,AsyncTheta,139,1192_4Hz.avi,choir5_oneeighty_4Hz.wav,choir,4,5.20265677454881,0,5,69,63,139,160,3,3,4,5.34904808166667,68.97930408,1123752.95073163
38,5,1,AsyncTheta,160,1421_4Hz.avi,choir13_oneeighty_4Hz.wav,choir,2,9.19081785390154,0,5,139,69,160,63,3,2,1,5.34904808166667,68.97930408,1123760.80906015
38,6,1,AsyncTheta,154,1074_4Hz.avi,dar5_oneeighty_4Hz.wav,dar,2,12.1128045357764,0,5,31,29,187,154,4,8,2,5.34904808166667,68.97930408,1123772.68402556
38,7,1,AsyncTheta,142,1155_4Hz.avi,orch9_oneeighty_4Hz.wav,orch,2,2.27740978891961,0,5,142,137,30,42,1,7,5,5.34904808166667,68.97930408,1123788.00893791
38,8,1,AsyncTheta,187,1164_4Hz.avi,dar12_oneeighty_4Hz.wav,dar,3,6.07845525909215,1,5,29,31,187,154,3,1,2,5.34904808166667,68.97930408,1123792.21731464
38,9,1,AsyncTheta,96,1027_4Hz.avi,acoustic40_oneeighty_4Hz.wav,acoustic,1,6.21159200556576,0,5,105,21,39,96,4,9,2,5.34904808166667,68.97930408,1123799.91724269
38,10,1,SyncTheta,69,1216_4Hz.avi,choir32_zero_4Hz.wav,choir,3,3.50722719216719,0,5,69,139,160,63,1,14,1,5.34904808166667,68.97930408,1123809.12559421
38,11,1,AsyncTheta,105,1003_4Hz.avi,acoustic6_oneeighty_4Hz.wav,acoustic,1,7.69378839177079,0,5,21,96,39,105,4,13,3,5.34904808166667,68.97930408,1123815.95904511
38,12,1,SyncTheta,30,1016_4Hz.avi,orch14_zero_4Hz.wav,orch,4,3.87798441504128,0,5,142,137,30,42,3,15,1,5.34904808166667,68.97930408,1123825.25067278
38,13,1,SyncTheta,31,1404_4Hz.avi,dar8_zero_4Hz.wav,dar,4,1.83847851562314,1,5,154,187,29,31,4,4,2,5.34904808166667,68.97930408,1123830.96721768
38,14,1,SyncTheta,42,1339_4Hz.avi,orch31_zero_4Hz.wav,orch,2,9.68983479472809,0,5,30,137,42,142,3,5,2,5.34904808166667,68.97930408,1123835.66721281
38,15,1,SyncTheta,39,1061_4Hz.avi,acoustic11_zero_4Hz.wav,acoustic,3,3.88692255364731,1,5,96,21,39,105,3,6,5,5.34904808166667,68.97930408,1123846.85054685
38,16,1,SyncTheta,21,1112_4Hz.avi,acoustic32_zero_4Hz.wav,acoustic,4,6.01600817102008,0,5,105,21,39,96,2,16,2,5.34904808166667,68.97930408,1123852.13387993
38,1,2,NoFlickerHalf,70,1093_half_length.avi,synth6_half_length.wav,synth,2,8.56754464004189,1,5,184,70,140,51,2,12,5,6.26190829666667,68.97930408,1124095.57546986
38,2,2,NoFlickerFull,179,1186_half_amp.avi,guitar30_half_amp.wav,guitar,2,7.2932936779689,0,5,53,112,7,179,4,13,3,6.26190829666667,68.97930408,1124106.00059192
38,3,2,NoFlickerHalf,22,1212_half_length.avi,willow20_half_length.wav,willow,3,6.65247715753503,0,5,75,22,149,157,2,8,4,6.26190829666667,68.97930408,1124116.19213214
38,4,2,NoFlickerHalf,7,1017_half_length.avi,guitar47_half_length.wav,guitar,4,3.66745916311629,0,5,112,7,53,179,2,9,3,6.26190829666667,68.97930408,1124125.22554634
38,5,2,NoFlickerFull,112,1388_half_amp.avi,guitar39_half_amp.wav,guitar,2,6.59093724447303,0,5,112,7,179,53,1,2,3,6.26190829666667,68.97930408,1124131.36727676
38,6,2,NoFlickerFull,184,1052_half_amp.avi,synth40_half_amp.wav,synth,3,10.1230319710448,0,5,184,51,70,140,1,10,1,6.26190829666667,68.97930408,1124140.50059233
38,7,2,NoFlickerFull,157,1225_half_amp.avi,willow14_half_amp.wav,willow,2,3.28554481943138,0,5,157,75,22,149,1,5,2,6.26190829666667,68.97930408,1124153.80878278
38,8,2,NoFlickerFull,140,1270_half_amp.avi,synth17_half_amp.wav,synth,4,6.83120095054619,0,5,140,70,51,184,1,3,4,6.26190829666667,68.97930408,1124159.39224895
38,9,2,NoFlickerHalf,87,1142_half_length.avi,ep3_half_length.wav,ep,4,14.4680337912869,0,5,87,166,25,177,1,6,1,6.26190829666667,68.97930408,1124169.50888521
38,10,2,NoFlickerHalf,53,1197_half_length.avi,guitar46_half_length.wav,guitar,4,4.96867959294468,1,5,112,7,179,53,4,15,2,6.26190829666667,68.97930408,1124185.37547971
38,11,2,NoFlickerHalf,25,1094_half_length.avi,ep15_half_length.wav,ep,1,7.24848984368145,1,5,25,177,87,166,1,11,3,6.26190829666667,68.97930408,1124192.20875686
38,12,2,NoFlickerHalf,75,1040_half_length.avi,willow17_half_length.wav,willow,4,5.26589566748589,0,5,22,149,75,157,3,16,5,6.26190829666667,68.97930408,1124201.07541623
38,13,2,NoFlickerHalf,51,1331_half_length.avi,synth47_half_length.wav,synth,4,1.95273025357164,0,5,70,140,51,184,3,7,1,6.26190829666667,68.97930408,1124207.73374295
38,14,2,NoFlickerFull,149,1200_half_amp.avi,willow8_half_amp.wav,willow,3,4.04412639164366,0,5,149,22,157,75,1,1,2,6.26190829666667,68.97930408,1124212.90873661
38,15,2,NoFlickerFull,166,1227_half_amp.avi,ep5_half_amp.wav,ep,1,5.20969499764033,0,5,87,166,25,177,2,4,4,6.26190829666667,68.97930408,1124220.2924215
38,16,2,NoFlickerFull,177,1283_half_amp.avi,ep38_half_amp.wav,ep,2,6.41501579177566,1,5,25,177,166,87,2,14,5,6.26190829666667,68.97930408,1124227.53388781
38,1,3,NoFlickerFull,131,1366_half_amp.avi,synth34_half_amp.wav,synth,3,13.392221422866,0,5,131,125,61,89,1,13,1,4.80398159666667,68.97930408,1124390.03368798
38,2,3,NoFlickerFull,172,1350_half_amp.avi,guitar10_half_amp.wav,guitar,3,3.94428094243631,0,5,185,93,3,172,4,14,1,4.80398159666667,68.97930408,1124404.93377706
38,3,3,NoFlickerHalf,66,1215_half_length.avi,willow18_half_length.wav,willow,3,5.77179296757095,1,5,108,118,66,167,3,12,3,4.80398159666667,68.97930408,1124410.51701023
38,4,3,NoFlickerFull,185,1131_half_amp.avi,guitar45_half_amp.wav,guitar,3,4.72315287101083,1,5,172,3,185,93,3,10,2,4.80398159666667,68.97930408,1124418.10866603
38,5,3,NoFlickerHalf,93,1046_half_length.avi,guitar18_half_length.wav,guitar,2,7.1366094017867,1,5,3,93,185,172,2,1,4,4.80398159666667,68.97930408,1124425.2921349
38,6,3,NoFlickerHalf,89,1393_half_length.avi,synth41_half_length.wav,synth,4,7.39381884364411,0,5,125,89,61,131,2,7,2,4.80398159666667,68.97930408,1124434.48366856
38,7,3,NoFlickerFull,167,1177_half_amp.avi,willow24_half_amp.wav,willow,4,8.39353156764992,1,5,66,108,118,167,4,9,1,4.80398159666667,68.97930408,1124443.27532603
38,8,3,NoFlickerHalf,61,1207_half_length.avi,synth46_half_length.wav,synth,3,3.6794139740523,0,5,131,125,89,61,4,5,2,4.80398159666667,68.97930408,1124454.12531543
38,9,3,NoFlickerHalf,101,1295_half_length.avi,ep40_half_length.wav,ep,1,2.61876755394042,1,5,101,6,144,123,1,3,5,4.80398159666667,68.97930408,1124460.75046265
38,10,3,NoFlickerHalf,3,1156_half_length.avi,guitar31_half_length.wav,guitar,1,6.47347949305549,0,5,172,3,93,185,2,15,5,4.80398159666667,68.97930408,1124465.28370911
38,11,3,NoFlickerFull,123,1067_half_amp.avi,ep37_half_amp.wav,ep,2,4.81503011286259,0,5,123,144,101,6,1,4,5,4.80398159666667,68.97930408,1124473.61700399
38,12,3,NoFlickerHalf,108,1415_half_length.avi,willow3_half_length.wav,willow,2,2.36479288036935,1,5,66,108,118,167,2,16,5,4.80398159666667,68.97930408,1124481.04208502
38,13,3,NoFlickerFull,125,1050_half_amp.avi,synth36_half_amp.wav,synth,1,10.3309473400004,0,5,61,89,125,131,3,6,2,4.80398159666667,68.97930408,1124485.70877866
38,14,3,NoFlickerFull,118,1020_half_amp.avi,willow22_half_amp.wav,willow,4,7.52846444677562,0,5,118,66,167,108,1,8,1,4.80398159666667,68.97930408,1124498.21696935
38,15,3,NoFlickerHalf,6,1007_half_length.avi,ep8_half_length.wav,ep,1,3.90723149199039,1,5,6,101,144,123,1,2,3,4.80398159666667,68.97930408,1124507.90045051
38,16,3,NoFlickerFull,144,1255_half_amp.avi,ep28_half_amp.wav,ep,2,8.60364805022255,1,5,123,144,6,101,2,11,2,4.80398159666667,68.97930408,1124513.65029895
38,1,4,SyncTheta,80,1082_4Hz.avi,dar15_zero_4Hz.wav,dar,1,7.15298080886714,0,5,34,136,147,80,4,16,2,4.94452057,68.97930408,1124683.74190719
38,2,4,AsyncTheta,78,1301_4Hz.avi,choir11_oneeighty_4Hz.wav,choir,4,6.18645931291394,0,5,13,88,78,52,3,13,2,4.94452057,68.97930408,1124694.15859839
38,3,4,SyncTheta,33,1136_4Hz.avi,orch38_zero_4Hz.wav,orch,1,6.32058622757904,1,5,33,158,188,57,1,10,3,4.94452057,68.97930408,1124702.09196197
38,4,4,SyncTheta,52,1387_4Hz.avi,choir2_zero_4Hz.wav,choir,4,7.03329287166707,1,5,88,13,78,52,4,9,1,4.94452057,68.97930408,1124711.52525983
38,5,4,SyncTheta,13,1201_4Hz.avi,choir7_zero_4Hz.wav,choir,3,9.70729107456282,1,5,52,88,13,78,3,2,4,4.94452057,68.97930408,1124720.89204123
38,6,4,SyncTheta,34,1319_4Hz.avi,dar22_zero_4Hz.wav,dar,1,11.1722064730711,0,5,136,80,34,147,3,12,1,4.94452057,68.97930408,1124733.81697253
38,7,4,SyncTheta,57,1309_4Hz.avi,orch7_zero_4Hz.wav,orch,3,5.78533234749921,0,5,33,57,158,188,2,8,5,4.94452057,68.97930408,1124747.88358635
38,8,4,AsyncTheta,147,1304_4Hz.avi,dar10_oneeighty_4Hz.wav,dar,2,5.52002793666907,1,5,80,147,136,34,2,4,1,4.94452057,68.97930408,1124755.19202926
38,9,4,AsyncTheta,175,1103_4Hz.avi,acoustic10_oneeighty_4Hz.wav,acoustic,3,5.0618975746911,0,5,20,60,104,175,4,6,5,4.94452057,68.97930408,1124762.16702633
38,10,4,AsyncTheta,88,1191_4Hz.avi,choir20_oneeighty_4Hz.wav,choir,4,4.06897447491065,0,5,88,78,52,13,1,15,2,4.94452057,68.97930408,1124769.08356363
38,11,4,SyncTheta,60,1249_4Hz.avi,acoustic20_zero_4Hz.wav,acoustic,3,3.84514931216836,0,5,104,175,20,60,4,7,5,4.94452057,68.97930408,1124775.79187019
38,12,4,AsyncTheta,158,1206_4Hz.avi,orch6_oneeighty_4Hz.wav,orch,3,4.83917292254046,0,5,33,188,57,158,4,11,2,4.94452057,68.97930408,1124782.48367278
38,13,4,AsyncTheta,136,1175_4Hz.avi,dar4_oneeighty_4Hz.wav,dar,4,5.94328121957369,0,5,34,147,136,80,3,5,1,4.94452057,68.97930408,1124789.98355388
38,14,4,AsyncTheta,188,1036_4Hz.avi,orch26_oneeighty_4Hz.wav,orch,1,6.316577474121,1,5,188,33,57,158,1,3,2,4.94452057,68.97930408,1124797.69186453
38,15,4,AsyncTheta,104,1111_4Hz.avi,acoustic31_oneeighty_4Hz.wav,acoustic,2,4.53688477398828,0,5,175,60,20,104,4,1,2,4.94452057,68.97930408,1124806.99186153
38,16,4,SyncTheta,20,1236_4Hz.avi,acoustic25_zero_4Hz.wav,acoustic,1,5.58154329145327,0,5,175,60,20,104,3,14,5,4.94452057,68.97930408,1124813.41686291
38,1,5,SyncTheta,64,1098_4Hz.avi,dar11_zero_4Hz.wav,dar,1,7.22970495722257,1,5,64,103,14,126,1,14,5,8.61553241166667,68.97930408,1125195.05852934
38,2,5,AsyncTheta,159,1091_4Hz.avi,choir8_oneeighty_4Hz.wav,choir,2,4.28105456382036,0,5,181,11,159,10,3,8,2,8.61553241166667,68.97930408,1125204.80018714
38,3,5,SyncTheta,28,1148_4Hz.avi,orch19_zero_4Hz.wav,orch,1,7.84793945983984,0,5,85,143,134,28,4,11,2,8.61553241166667,68.97930408,1125211.83348764
38,4,5,SyncTheta,11,1448_4Hz.avi,choir36_zero_4Hz.wav,choir,2,6.30684659373946,1,5,159,11,10,181,2,2,3,8.61553241166667,68.97930408,1125221.87512851
38,5,5,SyncTheta,10,1179_4Hz.avi,choir4_zero_4Hz.wav,choir,2,6.8471076739952,0,5,181,11,159,10,4,1,2,8.61553241166667,68.97930408,1125229.81669863
38,6,5,AsyncTheta,103,1084_4Hz.avi,dar20_oneeighty_4Hz.wav,dar,2,9.20017379196361,0,5,126,14,103,64,3,13,2,8.61553241166667,68.97930408,1125238.35018681
38,7,5,SyncTheta,85,1383_4Hz.avi,orch23_zero_4Hz.wav,orch,3,5.93071140348911,1,5,28,143,85,134,3,7,5,8.61553241166667,68.97930408,1125250.9584348
38,8,5,AsyncTheta,126,1298_4Hz.avi,dar9_oneeighty_4Hz.wav,dar,3,5.96550587448291,1,5,14,103,126,64,3,3,2,8.61553241166667,68.97930408,1125260.23351003
38,9,5,SyncTheta,47,1292_4Hz.avi,acoustic28_zero_4Hz.wav,acoustic,3,5.11108332686126,0,5,190,5,83,47,4,9,1,8.61553241166667,68.97930408,1125268.55005787
38,10,5,AsyncTheta,181,1168_4Hz.avi,choir1_oneeighty_4Hz.wav,choir,3,7.83531465753913,0,5,181,159,10,11,1,16,5,8.61553241166667,68.97930408,1125275.55837054
38,11,5,AsyncTheta,190,1427_4Hz.avi,acoustic46_oneeighty_4Hz.wav,acoustic,2,5.20877493266016,0,5,5,47,83,190,4,10,5,8.61553241166667,68.97930408,1125286.03334297
38,12,5,AsyncTheta,134,1026_4Hz.avi,orch16_oneeighty_4Hz.wav,orch,2,7.14884457085282,0,5,85,28,134,143,3,15,2,8.61553241166667,68.97930408,1125294.05834293
38,13,5,SyncTheta,14,1416_4Hz.avi,dar1_zero_4Hz.wav,dar,4,6.72250401275232,0,5,103,126,14,64,3,6,1,8.61553241166667,68.97930408,1125303.35015999
38,14,5,AsyncTheta,143,1127_4Hz.avi,orch11_oneeighty_4Hz.wav,orch,4,7.30187522247434,0,5,134,143,28,85,2,4,5,8.61553241166667,68.97930408,1125312.03347018
38,15,5,SyncTheta,5,1381_4Hz.avi,acoustic1_zero_4Hz.wav,acoustic,3,4.45752928149886,0,5,190,5,47,83,2,5,1,8.61553241166667,68.97930408,1125322.50001182
38,16,5,AsyncTheta,83,1139_4Hz.avi,acoustic27_oneeighty_4Hz.wav,acoustic,3,6.65601443289779,0,5,47,83,190,5,2,12,4,8.61553241166667,68.97930408,1125329.34998967
38,1,6,NoFlickerFull,129,1286_half_amp.avi,synth30_half_amp.wav,synth,2,13.1672015783843,0,5,71,35,129,135,3,14,4,4.75768009166667,68.97930408,1125483.47494372
38,2,6,NoFlickerFull,170,1062_half_amp.avi,guitar3_half_amp.wav,guitar,2,7.57157647097483,1,5,59,170,146,73,2,15,2,4.75768009166667,68.97930408,1125498.29992173
38,3,6,NoFlickerHalf,55,1044_half_length.avi,willow4_half_length.wav,willow,3,2.80794484354556,0,5,119,92,152,55,4,9,5,4.75768009166667,68.97930408,1125508.97493036
38,4,6,NoFlickerHalf,59,1346_half_length.avi,guitar33_half_length.wav,guitar,3,5.81117853918113,0,5,59,146,73,170,1,8,2,4.75768009166667,68.97930408,1125514.77489706
38,5,6,NoFlickerHalf,73,1369_half_length.avi,guitar19_half_length.wav,guitar,4,7.83285277406685,0,5,73,170,59,146,1,6,2,4.75768009166667,68.97930408,1125522.83323743
38,6,6,NoFlickerHalf,71,1076_half_length.avi,synth21_half_length.wav,synth,2,2.33043894357979,0,5,35,135,129,71,4,12,2,4.75768009166667,68.97930408,1125533.35824916
38,7,6,NoFlickerFull,119,1189_half_amp.avi,willow11_half_amp.wav,willow,3,5.29303394351155,0,5,92,152,55,119,4,7,1,4.75768009166667,68.97930408,1125537.86657546
38,8,6,NoFlickerHalf,35,1039_half_length.avi,synth5_half_length.wav,synth,4,8.31334294355474,0,5,135,35,129,71,2,3,1,4.75768009166667,68.97930408,1125545.82514616
38,9,6,NoFlickerFull,132,1356_half_amp.avi,ep30_half_amp.wav,ep,1,8.76644292240962,1,5,132,176,16,65,1,5,2,4.75768009166667,68.97930408,1125557.22502768
38,10,6,NoFlickerFull,146,1005_half_amp.avi,guitar14_half_amp.wav,guitar,4,5.38526489795186,0,5,73,146,59,170,2,16,1,4.75768009166667,68.97930408,1125567.7998803
38,11,6,NoFlickerFull,176,1405_half_amp.avi,ep46_half_amp.wav,ep,1,6.53581033926457,0,5,16,132,176,65,3,11,2,4.75768009166667,68.97930408,1125574.96665996
38,12,6,NoFlickerHalf,92,1030_half_length.avi,willow23_half_length.wav,willow,1,4.66037534317002,1,5,92,152,55,119,1,10,1,4.75768009166667,68.97930408,1125584.72501426
38,13,6,NoFlickerFull,135,1154_half_amp.avi,synth38_half_amp.wav,synth,1,3.20903144357726,1,5,135,71,35,129,1,4,4,4.75768009166667,68.97930408,1125592.59155696
38,14,6,NoFlickerFull,152,1445_half_amp.avi,willow2_half_amp.wav,willow,4,3.57572522968985,0,5,119,152,92,55,2,1,5,4.75768009166667,68.97930408,1125598.23321017
38,15,6,NoFlickerHalf,65,1013_half_length.avi,ep22_half_length.wav,ep,3,9.4940977722872,0,5,132,65,176,16,2,2,4,4.75768009166667,68.97930408,1125603.79160233
38,16,6,NoFlickerHalf,16,1442_half_length.avi,ep34_half_length.wav,ep,2,5.18842505896464,0,5,176,132,16,65,3,13,4,4.75768009166667,68.97930408,1125616.34995094
38,1,7,NoFlickerHalf,50,1049_half_length.avi,synth43_half_length.wav,synth,3,5.84337404347025,1,5,127,186,50,100,3,9,1,4.54511976666667,68.97930408,1125765.98314696
38,2,7,NoFlickerFull,161,1433_half_amp.avi,guitar2_half_amp.wav,guitar,1,10.485281863017,1,5,161,46,168,77,1,15,2,4.54511976666667,68.97930408,1125775.19990524
38,3,7,NoFlickerHalf,94,1109_half_length.avi,willow6_half_length.wav,willow,4,4.15406963322312,0,5,18,178,94,153,3,6,1,4.54511976666667,68.97930408,1125787.09994837
38,4,7,NoFlickerHalf,77,1008_half_length.avi,guitar42_half_length.wav,guitar,2,5.05681171547621,0,5,77,46,161,168,1,14,1,4.54511976666667,68.97930408,1125794.11645228
38,5,7,NoFlickerHalf,46,1210_half_length.avi,guitar48_half_length.wav,guitar,4,4.2127466655802,0,5,77,161,46,168,3,12,2,4.54511976666667,68.97930408,1125802.61652743
38,6,7,NoFlickerHalf,100,1107_half_length.avi,synth23_half_length.wav,synth,1,2.8009205639828,1,5,100,127,186,50,1,7,2,4.54511976666667,68.97930408,1125809.97492224
38,7,7,NoFlickerFull,178,1057_half_amp.avi,willow9_half_amp.wav,willow,4,6.59069172246382,0,5,178,94,18,153,1,2,1,4.54511976666667,68.97930408,1125815.08325498
38,8,7,NoFlickerFull,186,1031_half_amp.avi,synth7_half_amp.wav,synth,4,7.28540153685026,1,5,50,127,100,186,4,4,1,4.54511976666667,68.97930408,1125824.49980166
38,9,7,NoFlickerHalf,99,1173_half_length.avi,ep6_half_length.wav,ep,2,11.4543844743166,1,5,150,99,86,138,2,8,2,4.54511976666667,68.97930408,1125833.69144513
38,10,7,NoFlickerFull,168,1204_half_amp.avi,guitar36_half_amp.wav,guitar,1,2.87188579468057,0,5,77,161,168,46,3,16,5,4.54511976666667,68.97930408,1125847.54143451
38,11,7,NoFlickerFull,150,1394_half_amp.avi,ep11_half_amp.wav,ep,3,4.77467521210201,0,5,99,150,138,86,2,10,1,4.54511976666667,68.97930408,1125853.30810369
38,12,7,NoFlickerFull,153,1157_half_amp.avi,willow1_half_amp.wav,willow,3,4.17521071247756,1,5,18,94,153,178,3,11,5,4.54511976666667,68.97930408,1125860.40824939
38,13,7,NoFlickerFull,127,1411_half_amp.avi,synth28_half_amp.wav,synth,3,3.24783635349013,0,5,50,100,186,127,4,5,1,4.54511976666667,68.97930408,1125867.20809185
38,14,7,NoFlickerHalf,18,1101_half_length.avi,willow13_half_length.wav,willow,1,2.40547178150155,0,5,153,178,94,18,4,1,4,4.54511976666667,68.97930408,1125873.60810882
38,15,7,NoFlickerFull,138,1149_half_amp.avi,ep2_half_amp.wav,ep,2,5.99964918498881,0,5,138,86,99,150,1,3,2,4.54511976666667,68.97930408,1125879.14143662
38,16,7,NoFlickerHalf,86,1278_half_length.avi,ep35_half_length.wav,ep,3,6.91314079496078,0,5,138,86,150,99,2,13,5,4.54511976666667,68.97930408,1125887.40808161
38,1,8,SyncTheta,40,1239_4Hz.avi,dar6_zero_4Hz.wav,dar,2,9.18185101635754,0,5,116,191,49,40,4,13,2,4.530473235,68.97930408,1126051.23304808
38,2,8,AsyncTheta,121,1354_4Hz.avi,choir22_oneeighty_4Hz.wav,choir,2,3.4089088474866,0,5,121,76,38,68,1,10,2,4.530473235,68.97930408,1126062.77472615
38,3,8,AsyncTheta,165,1410_4Hz.avi,orch43_oneeighty_4Hz.wav,orch,4,4.38925900775939,0,5,165,91,141,81,1,4,1,4.530473235,68.97930408,1126067.86645389
38,4,8,SyncTheta,38,1184_4Hz.avi,choir33_zero_4Hz.wav,choir,3,3.38135300041176,0,5,121,38,68,76,2,8,1,4.530473235,68.97930408,1126073.8497659
38,5,8,SyncTheta,68,1023_4Hz.avi,choir3_zero_4Hz.wav,choir,3,6.52808584854938,0,5,76,121,38,68,4,5,1,4.530473235,68.97930408,1126079.85822685
38,6,8,AsyncTheta,116,1420_4Hz.avi,dar18_oneeighty_4Hz.wav,dar,4,3.42517333338037,0,5,191,49,116,40,3,9,4,4.530473235,68.97930408,1126089.61649737
38,7,8,SyncTheta,81,1444_4Hz.avi,orch4_zero_4Hz.wav,orch,1,3.37240431830287,0,5,165,81,91,141,2,2,2,4.530473235,68.97930408,1126095.46646018
38,8,8,SyncTheta,49,1221_4Hz.avi,dar21_zero_4Hz.wav,dar,3,4.50167224369943,1,5,116,40,49,191,3,3,1,4.530473235,68.97930408,1126101.73301636
38,9,8,AsyncTheta,107,1265_4Hz.avi,acoustic16_oneeighty_4Hz.wav,acoustic,4,7.85325032286346,0,5,107,1,9,148,1,11,1,4.530473235,68.97930408,1126108.74135378
38,10,8,AsyncTheta,76,1293_4Hz.avi,choir23_oneeighty_4Hz.wav,choir,4,3.30448722955771,1,5,38,68,121,76,4,16,1,4.530473235,68.97930408,1126118.74134247
38,11,8,SyncTheta,1,1064_4Hz.avi,acoustic12_zero_4Hz.wav,acoustic,2,8.11602447414771,0,5,1,107,148,9,1,14,4,4.530473235,68.97930408,1126123.54966433
38,12,8,AsyncTheta,141,1401_4Hz.avi,orch12_oneeighty_4Hz.wav,orch,1,4.31414665956981,0,5,91,81,165,141,4,12,2,4.530473235,68.97930408,1126133.37477894
38,13,8,AsyncTheta,191,1314_4Hz.avi,dar19_oneeighty_4Hz.wav,dar,2,4.99140110518783,0,5,191,116,40,49,1,6,4,4.530473235,68.97930408,1126141.08312909
38,14,8,SyncTheta,91,1340_4Hz.avi,orch46_zero_4Hz.wav,orch,4,3.34936498454772,0,5,141,165,91,81,3,1,2,4.530473235,68.97930408,1126147.92479022
38,15,8,SyncTheta,9,1054_4Hz.avi,acoustic44_zero_4Hz.wav,acoustic,3,6.29682260542177,0,5,107,9,148,1,2,7,1,4.530473235,68.97930408,1126153.95800219
38,16,8,AsyncTheta,148,1121_4Hz.avi,acoustic26_oneeighty_4Hz.wav,acoustic,2,4.0725504742004,0,5,1,9,148,107,3,15,1,4.530473235,68.97930408,1126162.15798543
38,1,9,SyncTheta,45,1203_4Hz.avi,dar2_zero_4Hz.wav,dar,4,8.64938121545129,0,5,45,114,56,82,1,13,2,10.8824345266667,68.97930408,1126680.04982778
38,2,9,AsyncTheta,97,1368_4Hz.avi,choir30_oneeighty_4Hz.wav,choir,1,4.95500570442528,0,5,98,62,19,97,4,15,1,10.8824345266667,68.97930408,1126691.9745862
38,3,9,AsyncTheta,110,1443_4Hz.avi,orch3_oneeighty_4Hz.wav,orch,3,5.82086715335026,0,5,74,145,102,110,4,5,5,10.8824345266667,68.97930408,1126700.16614855
38,4,9,SyncTheta,19,1247_4Hz.avi,choir38_zero_4Hz.wav,choir,2,5.55291475332342,0,5,62,97,98,19,4,3,1,10.8824345266667,68.97930408,1126709.04114395
38,5,9,AsyncTheta,98,1014_4Hz.avi,choir41_oneeighty_4Hz.wav,choir,3,3.41755149560049,1,5,19,97,98,62,3,1,1,10.8824345266667,68.97930408,1126717.1995058
38,6,9,AsyncTheta,82,1449_4Hz.avi,dar17_oneeighty_4Hz.wav,dar,1,6.98751410236582,1,5,82,45,114,56,1,11,2,10.8824345266667,68.97930408,1126723.7828271
38,7,9,SyncTheta,102,1012_4Hz.avi,orch18_zero_4Hz.wav,orch,4,3.83732755342498,0,5,110,145,102,74,3,4,4,10.8824345266667,68.97930408,1126732.35780315
38,8,9,SyncTheta,56,1063_4Hz.avi,dar16_zero_4Hz.wav,dar,2,8.0266148741357,0,5,56,82,114,45,1,6,1,10.8824345266667,68.97930408,1126738.70780363
38,9,9,SyncTheta,4,1167_4Hz.avi,acoustic37_zero_4Hz.wav,acoustic,3,8.61819516425021,0,5,4,169,113,58,1,8,3,10.8824345266667,68.97930408,1126748.72448334
38,10,9,SyncTheta,62,1058_4Hz.avi,choir19_zero_4Hz.wav,choir,4,3.32161075342447,0,5,19,62,98,97,2,16,1,10.8824345266667,68.97930408,1126758.93280015
38,11,9,AsyncTheta,169,1083_4Hz.avi,acoustic43_oneeighty_4Hz.wav,acoustic,1,6.07296514022164,1,5,169,4,113,58,1,10,5,10.8824345266667,68.97930408,1126764.74115296
38,12,9,SyncTheta,74,1337_4Hz.avi,orch24_zero_4Hz.wav,orch,4,8.36294150562026,0,5,145,74,110,102,2,12,1,10.8824345266667,68.97930408,1126773.55780909
38,13,9,AsyncTheta,114,1322_4Hz.avi,dar14_oneeighty_4Hz.wav,dar,3,7.72176215355285,1,5,56,45,114,82,3,9,2,10.8824345266667,68.97930408,1126784.98328015
38,14,9,AsyncTheta,145,1352_4Hz.avi,orch39_oneeighty_4Hz.wav,orch,2,4.87650771951303,0,5,145,110,74,102,1,2,3,10.8824345266667,68.97930408,1126794.54992748
38,15,9,AsyncTheta,113,1037_4Hz.avi,acoustic23_oneeighty_4Hz.wav,acoustic,3,5.65560719487257,1,5,169,4,113,58,3,7,3,10.8824345266667,68.97930408,1126802.79112641
38,16,9,SyncTheta,58,1323_4Hz.avi,acoustic29_zero_4Hz.wav,acoustic,3,8.03125920961611,0,5,169,58,4,113,2,14,5,10.8824345266667,68.97930408,1126811.22484429
38,1,10,NoFlickerHalf,8,1252_half_length.avi,synth25_half_length.wav,synth,3,6.0386215467006,0,5,8,111,54,163,1,11,4,4.66453068166667,68.97930408,1126963.07445995
38,2,10,NoFlickerHalf,15,1422_half_length.avi,guitar37_half_length.wav,guitar,3,4.4674712640699,1,5,67,183,15,164,3,14,2,4.66453068166667,68.97930408,1126970.59113514
38,3,10,NoFlickerHalf,37,1237_half_length.avi,willow15_half_length.wav,willow,2,9.04497792292386,0,5,37,120,32,130,1,9,2,4.66453068166667,68.97930408,1126977.47446688
38,4,10,NoFlickerHalf,67,1310_half_length.avi,guitar21_half_length.wav,guitar,1,6.62324258475564,0,5,164,15,67,183,3,13,2,4.66453068166667,68.97930408,1126989.46613462
38,5,10,NoFlickerFull,183,1374_half_amp.avi,guitar16_half_amp.wav,guitar,2,5.49156068451703,1,5,67,183,15,164,2,3,1,4.66453068166667,68.97930408,1126998.87459122
38,6,10,NoFlickerFull,163,1441_half_amp.avi,synth27_half_amp.wav,synth,3,9.06028484343551,0,5,54,163,8,111,2,8,1,4.66453068166667,68.97930408,1127006.00779796
38,7,10,NoFlickerHalf,32,1360_half_length.avi,willow10_half_length.wav,willow,1,3.40991906402633,0,5,37,120,130,32,4,7,1,4.66453068166667,68.97930408,1127016.99113304
38,8,10,NoFlickerFull,111,1390_half_amp.avi,synth3_half_amp.wav,synth,2,2.46456285356544,1,5,163,111,54,8,2,5,5,4.66453068166667,68.97930408,1127023.24945355
38,9,10,NoFlickerFull,189,1051_half_amp.avi,ep14_half_amp.wav,ep,4,7.96248692949302,0,5,41,189,180,106,2,4,1,4.66453068166667,68.97930408,1127028.84112477
38,10,10,NoFlickerFull,164,1087_half_amp.avi,guitar17_half_amp.wav,guitar,2,6.49100719485432,1,5,15,164,67,183,2,16,4,4.66453068166667,68.97930408,1127038.80791761
38,11,10,NoFlickerHalf,41,1132_half_length.avi,ep10_half_length.wav,ep,2,6.31660843314603,0,5,180,189,41,106,3,10,4,4.66453068166667,68.97930408,1127048.49960707
38,12,10,NoFlickerFull,120,1365_half_amp.avi,willow21_half_amp.wav,willow,3,3.0641012431588,0,5,32,37,130,120,4,15,3,4.66453068166667,68.97930408,1127056.59959216
38,13,10,NoFlickerHalf,54,1181_half_length.avi,synth12_half_length.wav,synth,1,2.99864576407708,1,5,54,8,163,111,1,6,2,4.66453068166667,68.97930408,1127063.02471504
38,14,10,NoFlickerFull,130,1081_half_amp.avi,willow5_half_amp.wav,willow,1,14.4374209947418,0,5,37,130,120,32,2,1,5,4.66453068166667,68.97930408,1127067.95778741
38,15,10,NoFlickerFull,180,1006_half_amp.avi,ep4_half_amp.wav,ep,4,5.23000384354964,1,5,189,106,41,180,4,2,2,4.66453068166667,68.97930408,1127084.84947476
38,16,10,NoFlickerHalf,106,1113_half_length.avi,ep29_half_length.wav,ep,3,6.0692162537016,0,5,180,106,189,41,2,12,3,4.66453068166667,68.97930408,1127093.14112365
38,1,11,NoFlickerHalf,95,1359_half_length.avi,synth33_half_length.wav,synth,1,11.8554530155379,0,5,128,155,95,109,3,12,4,4.65056727,68.97930408,1127247.34113478
38,2,11,NoFlickerFull,151,1259_half_amp.avi,guitar43_half_amp.wav,guitar,2,4.16088477429003,0,5,90,115,84,151,4,13,1,4.65056727,68.97930408,1127261.55781403
38,3,11,NoFlickerHalf,48,1021_half_length.avi,willow12_half_length.wav,willow,1,5.10749667417258,0,5,156,27,171,48,4,15,4,4.65056727,68.97930408,1127269.13281323
38,4,11,NoFlickerHalf,90,1273_half_length.avi,guitar23_half_length.wav,guitar,2,9.02391916047782,1,5,115,90,151,84,2,3,1,4.65056727,68.97930408,1127277.00796424
38,5,11,NoFlickerHalf,84,1294_half_length.avi,guitar6_half_length.wav,guitar,2,5.97341894335113,0,5,90,151,115,84,4,1,2,4.65056727,68.97930408,1127288.54950126
38,6,11,NoFlickerFull,155,1042_half_amp.avi,synth10_half_amp.wav,synth,2,6.5047938642092,1,5,128,155,95,109,2,11,3,4.65056727,68.97930408,1127296.03283104
38,7,11,NoFlickerHalf,27,1202_half_length.avi,willow16_half_length.wav,willow,4,6.26900326414034,0,5,171,156,27,48,3,10,2,4.65056727,68.97930408,1127305.67492924
38,8,11,NoFlickerHalf,109,1299_half_length.avi,synth18_half_length.wav,synth,3,3.00575471529737,0,5,95,128,155,109,4,6,5,4.65056727,68.97930408,1127314.57448098
38,9,11,NoFlickerHalf,24,1217_half_length.avi,ep44_half_length.wav,ep,1,5.07165384339169,0,5,173,26,24,117,3,4,4,4.65056727,68.97930408,1127319.37450686
38,10,11,NoFlickerFull,115,1370_half_amp.avi,guitar9_half_amp.wav,guitar,4,7.09972067410126,1,5,90,151,84,115,4,14,1,4.65056727,68.97930408,1127326.14115493
38,11,11,NoFlickerFull,117,1144_half_amp.avi,ep39_half_amp.wav,ep,3,4.37650636420585,0,5,24,173,26,117,4,5,2,4.65056727,68.97930408,1127335.03283544
38,12,11,NoFlickerFull,156,1060_half_amp.avi,willow7_half_amp.wav,willow,3,4.97017967421561,0,5,171,48,27,156,4,16,4,4.65056727,68.97930408,1127342.41648083
38,13,11,NoFlickerFull,128,1269_half_amp.avi,synth14_half_amp.wav,synth,4,5.31738201249391,1,5,155,95,109,128,4,8,4,4.65056727,68.97930408,1127350.44131809
38,14,11,NoFlickerFull,171,1280_half_amp.avi,willow19_half_amp.wav,willow,1,5.78187457472086,1,5,171,27,48,156,1,9,5,4.65056727,68.97930408,1127357.61631323
38,15,11,NoFlickerFull,173,1348_half_amp.avi,ep31_half_amp.wav,ep,2,6.41686770459637,1,5,117,173,24,26,2,2,1,4.65056727,68.97930408,1127365.5415719
38,16,11,NoFlickerHalf,26,1190_half_length.avi,ep7_half_length.wav,ep,3,3.61345889465883,0,5,26,24,173,117,1,7,4,4.65056727,68.97930408,1127374.72449971
38,1,12,SyncTheta,43,1141_4Hz.avi,dar13_zero_4Hz.wav,dar,1,5.54036291851662,1,5,43,2,122,162,1,15,3,4.778509005,68.97930408,1127538.12484468
38,2,12,AsyncTheta,124,1183_4Hz.avi,choir24_oneeighty_4Hz.wav,choir,2,8.37991256499663,0,5,72,12,124,182,3,9,1,4.778509005,68.97930408,1127545.11624974
38,3,12,SyncTheta,36,1284_4Hz.avi,orch29_zero_4Hz.wav,orch,3,6.90638777427375,1,5,174,17,36,192,3,10,1,4.778509005,68.97930408,1127556.01620673
38,4,12,SyncTheta,12,1077_4Hz.avi,choir18_zero_4Hz.wav,choir,3,4.84123855340295,0,5,182,72,124,12,4,5,1,4.778509005,68.97930408,1127565.62454065
38,5,12,AsyncTheta,182,1277_4Hz.avi,choir39_oneeighty_4Hz.wav,choir,2,3.70998816424981,0,5,12,72,182,124,3,4,1,4.778509005,68.97930408,1127573.09122674
38,6,12,AsyncTheta,162,1358_4Hz.avi,dar7_oneeighty_4Hz.wav,dar,3,5.58792595355771,1,5,122,2,162,43,3,14,2,4.778509005,68.97930408,1127580.09954625
38,7,12,SyncTheta,17,1162_4Hz.avi,orch1_zero_4Hz.wav,orch,1,7.70671718893573,0,5,192,36,17,174,3,8,4,4.778509005,68.97930408,1127589.10791861
38,8,12,SyncTheta,2,1431_4Hz.avi,dar24_zero_4Hz.wav,dar,3,3.48843374336138,1,5,122,43,2,162,3,1,1,4.778509005,68.97930408,1127599.77456576
38,9,12,SyncTheta,23,1330_4Hz.avi,acoustic47_zero_4Hz.wav,acoustic,2,6.15412130882032,1,5,44,23,79,133,2,3,2,4.778509005,68.97930408,1127605.93289039
38,10,12,SyncTheta,72,1097_4Hz.avi,choir29_zero_4Hz.wav,choir,1,5.19708966417238,0,5,12,182,72,124,3,16,2,4.778509005,68.97930408,1127613.91623674
38,11,12,AsyncTheta,133,1341_4Hz.avi,acoustic14_oneeighty_4Hz.wav,acoustic,1,6.77440726407804,1,5,133,79,23,44,1,11,5,4.778509005,68.97930408,1127621.25790694
38,12,12,AsyncTheta,192,1231_4Hz.avi,orch32_oneeighty_4Hz.wav,orch,4,4.91031016409397,0,5,36,192,174,17,2,12,4,4.778509005,68.97930408,1127630.73314764
38,13,12,AsyncTheta,122,1289_4Hz.avi,dar3_oneeighty_4Hz.wav,dar,1,3.81574391527101,1,5,122,2,43,162,1,7,2,4.778509005,68.97930408,1127637.22455798
38,14,12,AsyncTheta,174,1119_4Hz.avi,orch45_oneeighty_4Hz.wav,orch,2,2.75890416419134,0,5,192,17,36,174,4,6,4,4.778509005,68.97930408,1127644.39958064
38,15,12,SyncTheta,44,1254_4Hz.avi,acoustic48_zero_4Hz.wav,acoustic,3,9.1926703741774,1,5,79,23,44,133,3,2,1,4.778509005,68.97930408,1127650.24122983
38,16,12,AsyncTheta,79,1071_4Hz.avi,acoustic17_oneeighty_4Hz.wav,acoustic,3,4.14757101959549,0,5,44,133,23,79,4,13,5,4.778509005,68.97930408,1127660.99126028
