ParticipantID,TrialNumber,BlockNumber,Condition,ClipID,VideoFile,SoundFile,SoundCategory,Response,RT,Accuracy,ConditionID,Frame1,Frame2,Frame3,Frame4,CorrectKey,EncodingPosition,Rating,BlockDuration,ExperimentDuration,MemoryTestOnset
,,,,,,,,,,,,,,,,,,,,,
,,,,,,,,,,,,,,,,,,,,,
,,,,,,,,,,,,,,,,,,,,,
,,,,,,,,,,,,,,,,,,,,,
,,,,,,,,,,,,,,,,,,,,,
,,,,,,,,,,,,,,,,,,,,,
,,,,,,,,,,,,,,,,,,,,,
,,,,,,,,,,,,,,,,,,,,,
,,,,,,,,,,,,,,,,,,,,,
,,,,,,,,,,,,,,,,,,,,,
,,,,,,,,,,,,,,,,,,,,,
,,,,,,,,,,,,,,,,,,,,,
,,,,,,,,,,,,,,,,,,,,,
,,,,,,,,,,,,,,,,,,,,,
,,,,,,,,,,,,,,,,,,,,,
,,,,,,,,,,,,,,,,,,,,,
,,,,,,,,,,,,,,,,,,,,,
,,,,,,,,,,,,,,,,,,,,,
,,,,,,,,,,,,,,,,,,,,,
,,,,,,,,,,,,,,,,,,,,,
,,,,,,,,,,,,,,,,,,,,,
,,,,,,,,,,,,,,,,,,,,,
,,,,,,,,,,,,,,,,,,,,,
,,,,,,,,,,,,,,,,,,,,,
,,,,,,,,,,,,,,,,,,,,,
,,,,,,,,,,,,,,,,,,,,,
,,,,,,,,,,,,,,,,,,,,,
,,,,,,,,,,,,,,,,,,,,,
,,,,,,,,,,,,,,,,,,,,,
,,,,,,,,,,,,,,,,,,,,,
,,,,,,,,,,,,,,,,,,,,,
,,,,,,,,,,,,,,,,,,,,,
,,,,,,,,,,,,,,,,,,,,,
,,,,,,,,,,,,,,,,,,,,,
,,,,,,,,,,,,,,,,,,,,,
,,,,,,,,,,,,,,,,,,,,,
,,,,,,,,,,,,,,,,,,,,,
,,,,,,,,,,,,,,,,,,,,,
,,,,,,,,,,,,,,,,,,,,,
,,,,,,,,,,,,,,,,,,,,,
,,,,,,,,,,,,,,,,,,,,,
,,,,,,,,,,,,,,,,,,,,,
,,,,,,,,,,,,,,,,,,,,,
,,,,,,,,,,,,,,,,,,,,,
,,,,,,,,,,,,,,,,,,,,,
,,,,,,,,,,,,,,,,,,,,,
,,,,,,,,,,,,,,,,,,,,,
,,,,,,,,,,,,,,,,,,,,,
,,,,,,,,,,,,,,,,,,,,,
,,,,,,,,,,,,,,,,,,,,,
,,,,,,,,,,,,,,,,,,,,,
,,,,,,,,,,,,,,,,,,,,,
,,,,,,,,,,,,,,,,,,,,,
,,,,,,,,,,,,,,,,,,,,,
,,,,,,,,,,,,,,,,,,,,,
,,,,,,,,,,,,,,,,,,,,,
,,,,,,,,,,,,,,,,,,,,,
,,,,,,,,,,,,,,,,,,,,,
,,,,,,,,,,,,,,,,,,,,,
,,,,,,,,,,,,,,,,,,,,,
,,,,,,,,,,,,,,,,,,,,,
,,,,,,,,,,,,,,,,,,,,,
,,,,,,,,,,,,,,,,,,,,,
,,,,,,,,,,,,,,,,,,,,,
,,,,,,,,,,,,,,,,,,,,,
,,,,,,,,,,,,,,,,,,,,,
,,,,,,,,,,,,,,,,,,,,,
,,,,,,,,,,,,,,,,,,,,,
,,,,,,,,,,,,,,,,,,,,,
,,,,,,,,,,,,,,,,,,,,,
,,,,,,,,,,,,,,,,,,,,,
,,,,,,,,,,,,,,,,,,,,,
,,,,,,,,,,,,,,,,,,,,,
,,,,,,,,,,,,,,,,,,,,,
,,,,,,,,,,,,,,,,,,,,,
,,,,,,,,,,,,,,,,,,,,,
,,,,,,,,,,,,,,,,,,,,,
,,,,,,,,,,,,,,,,,,,,,
,,,,,,,,,,,,,,,,,,,,,
,,,,,,,,,,,,,,,,,,,,,
2,1,6,NoFlickerHalf,28,1148_half_length.avi,orch19_half_length.wav,orch,3,4.29310429999987,0,2,143,134,85,28,4,14,3,4.32249885,,3105.9417749
2,2,6,NoFlickerFull,134,1026_half_amp.avi,orch16_half_amp.wav,orch,3,3.60774129999982,1,2,85,143,134,28,3,7,4,4.32249885,,3112.6081143
2,3,6,NoFlickerHalf,85,1383_half_length.avi,orch23_half_length.wav,orch,1,3.48268980000012,0,2,143,85,134,28,2,5,4,4.32249885,,3118.3164383
2,4,6,NoFlickerFull,190,1427_half_amp.avi,acoustic46_half_amp.wav,acoustic,1,3.99592929999972,0,2,83,190,47,5,2,6,5,4.32249885,,3124.9247242
2,5,6,NoFlickerHalf,47,1292_half_length.avi,acoustic28_half_length.wav,acoustic,4,3.61058989999992,1,2,190,5,83,47,4,10,1,4.32249885,,3132.4161549
2,6,6,NoFlickerHalf,5,1381_half_length.avi,acoustic1_half_length.wav,acoustic,3,2.52325610000025,0,2,83,5,190,47,2,15,4,4.32249885,,3139.1075573
2,7,6,NoFlickerHalf,64,1098_half_length.avi,dar11_half_length.wav,dar,4,3.8054675000003,0,2,103,64,14,126,2,12,2,4.32249885,,3144.8990916
2,8,6,NoFlickerFull,83,1139_half_amp.avi,acoustic27_half_amp.wav,acoustic,4,6.11261669999976,0,2,47,190,83,5,3,2,2,4.32249885,,3152.2071157
2,9,6,NoFlickerFull,126,1298_half_amp.avi,dar9_half_amp.wav,dar,4,4.41454179999982,1,2,14,103,64,126,4,16,3,4.32249885,,3161.5652074
2,10,6,NoFlickerFull,181,1168_half_amp.avi,choir1_half_amp.wav,choir,2,5.64367270000002,0,2,181,159,11,10,1,11,5,4.32249885,,3169.0151578
2,11,6,NoFlickerFull,159,1091_half_amp.avi,choir8_half_amp.wav,choir,1,4.32898360000036,0,2,11,181,10,159,4,13,4,4.32249885,,3177.1232671
2,12,6,NoFlickerFull,103,1084_half_amp.avi,dar20_half_amp.wav,dar,2,4.14427150000029,1,2,14,103,64,126,2,8,5,4.32249885,,3184.9895847
2,13,6,NoFlickerFull,143,1127_half_amp.avi,orch11_half_amp.wav,orch,1,7.03800200000023,0,2,134,143,28,85,2,9,3,4.32249885,,3191.1478051
2,14,6,NoFlickerHalf,11,1448_half_length.avi,choir36_half_length.wav,choir,4,4.06046639999977,0,2,159,11,181,10,2,1,3,4.32249885,,3200.1560241
2,15,6,NoFlickerHalf,10,1179_half_length.avi,choir4_half_length.wav,choir,3,2.64632519999986,1,2,159,181,10,11,3,4,4,4.32249885,,3206.3223951
2,16,6,NoFlickerHalf,14,1416_half_length.avi,dar1_half_length.wav,dar,1,5.50312060000033,0,2,126,14,64,103,2,3,2,4.32249885,,3212.3307133
2,1,7,NoFlickerFull,141,1401_half_amp.avi,orch12_half_amp.wav,orch,4,5.15086999999994,0,2,81,91,141,165,3,13,4,4.630898155,,3373.0183138
2,2,7,NoFlickerHalf,91,1340_half_length.avi,orch46_half_length.wav,orch,3,4.16010449999976,0,2,91,165,81,141,1,10,2,4.630898155,,3380.7515911
2,3,7,NoFlickerHalf,81,1444_half_length.avi,orch4_half_length.wav,orch,4,8.20150310000008,1,2,165,141,91,81,4,6,4,4.630898155,,3386.4846392
2,4,7,NoFlickerHalf,1,1064_half_length.avi,acoustic12_half_length.wav,acoustic,3,5.35423730000002,0,2,1,107,148,9,1,7,5,4.630898155,,3398.13418
2,5,7,NoFlickerHalf,9,1054_half_length.avi,acoustic44_half_length.wav,acoustic,2,5.6473990999998,0,2,9,148,1,107,1,8,3,4.630898155,,3406.6174753
2,6,7,NoFlickerFull,148,1121_half_amp.avi,acoustic26_half_amp.wav,acoustic,4,6.48007460000008,0,2,107,148,9,1,2,15,5,4.630898155,,3414.3922687
2,7,7,NoFlickerHalf,40,1239_half_length.avi,dar6_half_length.wav,dar,1,4.2064462000003,0,2,116,40,49,191,2,12,2,4.630898155,,3422.7837231
2,8,7,NoFlickerFull,107,1265_half_amp.avi,acoustic16_half_amp.wav,acoustic,2,5.97444189999987,1,2,9,107,1,148,2,4,1,4.630898155,,3428.8166811
2,9,7,NoFlickerHalf,49,1221_half_length.avi,dar21_half_length.wav,dar,3,3.09305679999989,0,2,116,49,40,191,2,14,4,4.630898155,,3437.9583444
2,10,7,NoFlickerHalf,38,1184_half_length.avi,choir33_half_length.wav,choir,3,5.05087709999998,0,2,38,68,76,121,1,5,2,4.630898155,,3442.7497439
2,11,7,NoFlickerHalf,68,1023_half_length.avi,choir3_half_length.wav,choir,1,4.94504700000016,0,2,121,76,38,68,4,16,1,4.630898155,,3449.8330444
2,12,7,NoFlickerFull,191,1314_half_amp.avi,dar19_half_amp.wav,dar,2,4.49362939999992,1,2,40,191,116,49,2,9,2,4.630898155,,3456.6744238
2,13,7,NoFlickerFull,165,1410_half_amp.avi,orch43_half_amp.wav,orch,4,5.3750657999999,0,2,141,165,81,91,2,11,3,4.630898155,,3463.9160181
2,14,7,NoFlickerFull,76,1293_half_amp.avi,choir23_half_amp.wav,choir,2,7.92482319999999,1,2,68,76,121,38,2,1,1,4.630898155,,3472.2989718
2,15,7,NoFlickerFull,121,1354_half_amp.avi,choir22_half_amp.wav,choir,1,4.35177800000019,1,2,121,68,38,76,1,2,3,4.630898155,,3483.2405313
2,16,7,NoFlickerFull,116,1420_half_amp.avi,dar18_half_amp.wav,dar,3,4.79176310000003,1,2,191,40,116,49,3,3,2,4.630898155,,3491.0902042
2,1,8,AsyncTheta,178,1057_4Hz.avi,willow9_oneeighty_4Hz.wav,willow,3,5.72649450000017,0,2,153,18,94,178,4,16,1,4.34927267166667,,3638.595058
2,2,8,AsyncTheta,153,1157_4Hz.avi,willow1_oneeighty_4Hz.wav,willow,1,5.13267349999978,1,2,153,178,94,18,1,9,4,4.34927267166667,,3646.4196105
2,3,8,SyncTheta,94,1109_4Hz.avi,willow6_zero_4Hz.wav,willow,1,8.1118262,0,2,18,94,153,178,2,5,2,4.34927267166667,,3655.0860283
2,4,8,SyncTheta,86,1278_4Hz.avi,ep35_zero_4Hz.wav,ep,1,3.74702640000032,0,2,150,138,86,99,3,2,3,4.34927267166667,,3665.1192622
2,5,8,AsyncTheta,150,1394_4Hz.avi,ep11_oneeighty_4Hz.wav,ep,4,4.25459320000027,0,2,150,138,99,86,1,6,4,4.34927267166667,,3671.5939713
2,6,8,SyncTheta,99,1173_4Hz.avi,ep6_zero_4Hz.wav,ep,2,2.94268839999995,1,2,150,99,86,138,2,10,1,4.34927267166667,,3679.3270659
2,7,8,AsyncTheta,186,1031_4Hz.avi,synth7_oneeighty_4Hz.wav,synth,4,8.41211500000009,1,2,127,100,50,186,4,12,1,4.34927267166667,,3684.2104516
2,8,8,AsyncTheta,138,1149_4Hz.avi,ep2_oneeighty_4Hz.wav,ep,4,2.76343409999981,1,2,86,150,99,138,4,1,2,4.34927267166667,,3695.4851656
2,9,8,SyncTheta,100,1107_4Hz.avi,synth23_zero_4Hz.wav,synth,3,4.06970769999998,1,2,50,127,100,186,3,13,1,4.34927267166667,,3700.0850458
2,10,8,AsyncTheta,168,1204_4Hz.avi,guitar36_oneeighty_4Hz.wav,guitar,3,5.92173440000033,0,2,46,77,161,168,4,11,3,4.34927267166667,,3707.3598343
2,11,8,AsyncTheta,161,1433_4Hz.avi,guitar2_oneeighty_4Hz.wav,guitar,1,6.3201412999997,0,2,77,161,168,46,2,15,2,4.34927267166667,,3715.5510945
2,12,8,SyncTheta,50,1049_4Hz.avi,synth43_zero_4Hz.wav,synth,1,5.60504459999993,1,2,50,100,186,127,1,4,1,4.34927267166667,,3725.2762342
2,13,8,SyncTheta,18,1101_4Hz.avi,willow13_zero_4Hz.wav,willow,4,3.93564600000036,1,2,94,153,178,18,4,14,2,4.34927267166667,,3733.1925355
2,14,8,SyncTheta,46,1210_4Hz.avi,guitar48_zero_4Hz.wav,guitar,2,4.16506849999996,1,2,168,46,161,77,2,7,1,4.34927267166667,,3740.4338885
2,15,8,SyncTheta,77,1008_4Hz.avi,guitar42_zero_4Hz.wav,guitar,1,3.8541282000001,0,2,168,77,46,161,2,8,1,4.34927267166667,,3746.3755397
2,16,8,AsyncTheta,127,1411_4Hz.avi,synth28_oneeighty_4Hz.wav,synth,2,3.95619519999991,1,2,186,127,100,50,2,3,1,4.34927267166667,,3753.0837017
2,1,9,SyncTheta,37,1237_4Hz.avi,willow15_zero_4Hz.wav,willow,2,4.18210050000016,1,2,32,37,130,120,2,15,3,4.15994843,,3910.4795924
2,2,9,AsyncTheta,130,1081_4Hz.avi,willow5_oneeighty_4Hz.wav,willow,2,3.40771820000009,0,2,37,120,130,32,3,3,2,4.15994843,,3916.3462302
2,3,9,AsyncTheta,120,1365_4Hz.avi,willow21_oneeighty_4Hz.wav,willow,1,3.90986109999994,0,2,130,120,37,32,2,1,2,4.15994843,,3923.129401
2,4,9,AsyncTheta,189,1051_4Hz.avi,ep14_oneeighty_4Hz.wav,ep,2,3.39015449999988,0,2,106,41,189,180,3,9,2,4.15994843,,3928.6792301
2,5,9,SyncTheta,41,1132_4Hz.avi,ep10_zero_4Hz.wav,ep,1,3.43891859999985,0,2,106,189,180,41,4,11,1,4.15994843,,3935.3624334
2,6,9,AsyncTheta,180,1006_4Hz.avi,ep4_oneeighty_4Hz.wav,ep,2,3.90611430000035,1,2,189,180,106,41,2,13,1,4.15994843,,3942.4122494
2,7,9,AsyncTheta,163,1441_4Hz.avi,synth27_oneeighty_4Hz.wav,synth,2,3.26340550000032,0,2,163,8,54,111,1,8,2,4.15994843,,3948.6952742
2,8,9,SyncTheta,106,1113_4Hz.avi,ep29_zero_4Hz.wav,ep,1,3.59161949999998,0,2,41,189,106,180,3,4,1,4.15994843,,3953.686967
2,9,9,SyncTheta,54,1181_4Hz.avi,synth12_zero_4Hz.wav,synth,3,4.10417359999974,1,2,111,163,54,8,3,16,2,4.15994843,,3959.7534878
2,10,9,SyncTheta,67,1310_4Hz.avi,guitar21_zero_4Hz.wav,guitar,1,3.44613159999972,0,2,183,164,67,15,3,10,4,4.15994843,,3966.6116461
2,11,9,AsyncTheta,183,1374_4Hz.avi,guitar16_oneeighty_4Hz.wav,guitar,2,3.42067490000045,1,2,15,183,67,164,2,12,1,4.15994843,,3971.7531778
2,12,9,SyncTheta,8,1252_4Hz.avi,synth25_zero_4Hz.wav,synth,4,5.13257070000009,0,2,54,111,8,163,3,7,1,4.15994843,,3977.377895
2,13,9,SyncTheta,32,1360_4Hz.avi,willow10_zero_4Hz.wav,willow,3,4.17883219999976,1,2,120,37,32,130,3,14,1,4.15994843,,3984.3943825
2,14,9,AsyncTheta,164,1087_4Hz.avi,guitar17_oneeighty_4Hz.wav,guitar,2,3.04705650000005,1,2,15,164,67,183,2,5,2,4.15994843,,3991.4026964
2,15,9,SyncTheta,15,1422_4Hz.avi,guitar37_zero_4Hz.wav,guitar,3,3.14725590000035,0,2,164,15,67,183,2,6,3,4.15994843,,3997.2940602
2,16,9,AsyncTheta,111,1390_4Hz.avi,synth3_oneeighty_4Hz.wav,synth,2,3.71159679999982,0,2,8,163,111,54,3,2,3,4.15994843,,4003.1107394
2,1,10,NoFlickerHalf,102,1012_half_length.avi,orch18_half_length.wav,orch,3,5.03500279999935,0,2,110,74,145,102,4,15,2,4.34837856666667,,4172.5900152
2,2,10,NoFlickerHalf,74,1337_half_length.avi,orch24_half_length.wav,orch,2,3.42141580000043,0,2,145,102,110,74,4,7,4,4.34837856666667,,4179.5729947
2,3,10,NoFlickerFull,110,1443_half_amp.avi,orch3_half_amp.wav,orch,3,7.17527650000011,1,2,145,74,110,102,3,3,3,4.34837856666667,,4185.3060278
2,4,10,NoFlickerFull,169,1083_half_amp.avi,acoustic43_half_amp.wav,acoustic,1,3.56341630000043,0,2,113,58,4,169,4,5,4,4.34837856666667,,4194.5309994
2,5,10,NoFlickerHalf,58,1323_half_length.avi,acoustic29_half_length.wav,acoustic,1,2.08358750000025,0,2,4,113,58,169,3,9,3,4.34837856666667,,4200.7724791
2,6,10,NoFlickerFull,113,1037_half_amp.avi,acoustic23_half_amp.wav,acoustic,4,3.41010679999999,0,2,113,169,4,58,1,16,3,4.34837856666667,,4205.0640307
2,7,10,NoFlickerFull,82,1449_half_amp.avi,dar17_half_amp.wav,dar,2,4.64693799999986,1,2,45,82,56,114,2,12,2,4.34837856666667,,4210.2889034
2,8,10,NoFlickerHalf,4,1167_half_length.avi,acoustic37_half_length.wav,acoustic,4,3.55026249999992,0,2,4,58,169,113,1,2,2,4.34837856666667,,4217.2720581
2,9,10,NoFlickerFull,114,1322_half_amp.avi,dar14_half_amp.wav,dar,3,4.0857472000007,0,2,114,56,45,82,1,14,3,4.34837856666667,,4222.7467689
2,10,10,NoFlickerHalf,62,1058_half_length.avi,choir19_half_length.wav,choir,3,3.96528909999961,0,2,19,62,98,97,2,10,4,4.34837856666667,,4230.2216146
2,11,10,NoFlickerHalf,19,1247_half_length.avi,choir38_half_length.wav,choir,1,2.6144561000001,0,2,97,98,19,62,3,13,4,4.34837856666667,,4236.9047938
2,12,10,NoFlickerHalf,56,1063_half_length.avi,dar16_half_length.wav,dar,3,2.89724050000041,0,2,45,82,114,56,4,11,3,4.34837856666667,,4242.8464341
2,13,10,NoFlickerFull,145,1352_half_amp.avi,orch39_half_amp.wav,orch,1,2.83518269999968,0,2,102,74,110,145,4,8,3,4.34837856666667,,4247.4546403
2,14,10,NoFlickerFull,97,1368_half_amp.avi,choir30_half_amp.wav,choir,3,3.80500660000052,1,2,98,19,97,62,3,1,4,4.34837856666667,,4253.429507
2,15,10,NoFlickerFull,98,1014_half_amp.avi,choir41_half_amp.wav,choir,1,3.14720300000045,0,2,97,98,62,19,2,6,3,4.34837856666667,,4259.4543466
2,16,10,NoFlickerHalf,45,1203_half_length.avi,dar2_half_length.wav,dar,2,2.69833910000034,0,2,45,114,56,82,1,4,4,4.34837856666667,,4265.2374574
2,1,11,NoFlickerHalf,36,1284_half_length.avi,orch29_half_length.wav,orch,4,3.25212649999958,0,2,17,36,174,192,2,16,2,3.67012645833333,,4421.6835449
2,2,11,NoFlickerFull,192,1231_half_amp.avi,orch32_half_amp.wav,orch,3,3.23126769999999,0,2,17,192,36,174,2,8,2,3.67012645833333,,4428.0750485
2,3,11,NoFlickerFull,174,1119_half_amp.avi,orch45_half_amp.wav,orch,1,1.62799809999979,0,2,192,17,36,174,4,7,2,3.67012645833333,,4434.6916732
2,4,11,NoFlickerHalf,44,1254_half_length.avi,acoustic48_half_length.wav,acoustic,3,5.36448459999974,0,2,44,133,23,79,1,6,2,3.67012645833333,,4437.8749285
2,5,11,NoFlickerFull,133,1341_half_amp.avi,acoustic14_half_amp.wav,acoustic,3,1.04371569999967,0,2,44,133,79,23,2,14,4,3.67012645833333,,4445.2664168
2,6,11,NoFlickerFull,79,1071_half_amp.avi,acoustic17_half_amp.wav,acoustic,3,1.41844010000023,0,2,44,23,133,79,4,15,2,3.67012645833333,,4448.7994964
2,7,11,NoFlickerHalf,2,1431_half_length.avi,dar24_half_length.wav,dar,3,1.3473997000001,0,2,122,43,162,2,4,11,4,3.67012645833333,,4452.0660771
2,8,11,NoFlickerHalf,23,1330_half_length.avi,acoustic47_half_length.wav,acoustic,4,2.96890880000046,1,2,44,79,133,23,4,3,3,3.67012645833333,,4454.9995032
2,9,11,NoFlickerHalf,43,1141_half_length.avi,dar13_half_length.wav,dar,3,2.10718949999955,1,2,2,162,43,122,3,13,2,3.67012645833333,,4460.8076846
2,10,11,NoFlickerHalf,12,1077_half_length.avi,choir18_half_length.wav,choir,4,1.3599637999996,0,2,12,72,182,124,1,10,5,3.67012645833333,,4465.2741125
2,11,11,NoFlickerHalf,72,1097_half_length.avi,choir29_half_length.wav,choir,3,1.00195989999975,0,2,72,12,124,182,1,12,4,3.67012645833333,,4468.3323287
2,12,11,NoFlickerFull,122,1289_half_amp.avi,dar3_half_amp.wav,dar,2,1.49136829999952,0,2,43,2,122,162,3,5,3,3.67012645833333,,4471.332292
2,13,11,NoFlickerHalf,17,1162_half_length.avi,orch1_half_length.wav,orch,1,1.16997409999931,0,2,174,17,36,192,2,9,4,3.67012645833333,,4474.8073615
2,14,11,NoFlickerFull,124,1183_half_amp.avi,choir24_half_amp.wav,choir,4,1.98706499999935,0,2,182,124,12,72,2,1,1,3.67012645833333,,4479.1237993
2,15,11,NoFlickerFull,182,1277_half_amp.avi,choir39_half_amp.wav,choir,3,1.00189409999984,1,2,72,124,182,12,3,2,2,3.67012645833333,,4483.3569816
2,16,11,NoFlickerFull,162,1358_half_amp.avi,dar7_half_amp.wav,dar,4,1.23734150000018,0,2,2,162,122,43,2,4,2,3.67012645833333,,4487.1152407
,,,,,,,,,,,,,,,,,,,,,
,,,,,,,,,,,,,,,,,,,,,
,,,,,,,,,,,,,,,,,,,,,
,,,,,,,,,,,,,,,,,,,,,
,,,,,,,,,,,,,,,,,,,,,
,,,,,,,,,,,,,,,,,,,,,
,,,,,,,,,,,,,,,,,,,,,
,,,,,,,,,,,,,,,,,,,,,
,,,,,,,,,,,,,,,,,,,,,
,,,,,,,,,,,,,,,,,,,,,
,,,,,,,,,,,,,,,,,,,,,
,,,,,,,,,,,,,,,,,,,,,
,,,,,,,,,,,,,,,,,,,,,
,,,,,,,,,,,,,,,,,,,,,
,,,,,,,,,,,,,,,,,,,,,
,,,,,,,,,,,,,,,,,,,,,
