ParticipantID,TrialNumber,BlockNumber,Condition,ClipID,VideoFile,SoundFile,SoundCategory,Response,RT,Accuracy,ConditionID,Frame1,Frame2,Frame3,Frame4,CorrectKey,EncodingPosition,Rating,BlockDuration,ExperimentDuration,MemoryTestOnset
11,1,1,NoFlickerHalf,53,1197_half_length.avi,guitar46_half_length.wav,guitar,4,10.5363427,0,11,7,112,53,179,3,15,1,7.42509271833333,67.3043907433333,625.150337
11,2,1,NoFlickerHalf,7,1017_half_length.avi,guitar47_half_length.wav,guitar,3,3.02245019999998,0,11,112,179,53,7,4,7,4,7.42509271833333,67.3043907433333,637.7669515
11,3,1,NoFlickerFull,157,1225_half_amp.avi,willow14_half_amp.wav,willow,4,8.2375227,0,11,157,149,22,75,1,3,4,7.42509271833333,67.3043907433333,643.6582988
11,4,1,NoFlickerHalf,75,1040_half_length.avi,willow17_half_length.wav,willow,1,4.73790399999996,0,11,157,149,22,75,4,11,3,7.42509271833333,67.3043907433333,655.1578482
11,5,1,NoFlickerFull,140,1270_half_amp.avi,synth17_half_amp.wav,synth,2,10.1770346000001,0,11,70,51,184,140,4,10,1,7.42509271833333,67.3043907433333,661.8160488
11,6,1,NoFlickerFull,112,1388_half_amp.avi,guitar39_half_amp.wav,guitar,4,12.6180378,1,11,179,53,7,112,4,2,4,7.42509271833333,67.3043907433333,675.207542
11,7,1,NoFlickerHalf,25,1094_half_length.avi,ep15_half_length.wav,ep,4,4.86056429999996,0,11,25,166,87,177,1,8,3,7.42509271833333,67.3043907433333,691.0154348
11,8,1,NoFlickerFull,149,1200_half_amp.avi,willow8_half_amp.wav,willow,1,14.9910161,0,11,22,157,75,149,4,16,4,7.42509271833333,67.3043907433333,698.5818505
11,9,1,NoFlickerFull,179,1186_half_amp.avi,guitar30_half_amp.wav,guitar,2,8.45446689999994,0,11,112,53,7,179,4,12,4,7.42509271833333,67.3043907433333,716.8814006
11,10,1,NoFlickerHalf,87,1142_half_length.avi,ep3_half_length.wav,ep,3,3.962221,0,11,166,87,177,25,2,6,2,7.42509271833333,67.3043907433333,726.964401
11,11,1,NoFlickerHalf,22,1212_half_length.avi,willow20_half_length.wav,willow,1,9.20604729999991,1,11,22,157,149,75,1,1,2,7.42509271833333,67.3043907433333,732.9474006
11,12,1,NoFlickerFull,184,1052_half_amp.avi,synth40_half_amp.wav,synth,4,8.60330490000001,1,11,70,140,51,184,4,4,1,7.42509271833333,67.3043907433333,745.5469823
11,13,1,NoFlickerHalf,51,1331_half_length.avi,synth47_half_length.wav,synth,3,4.08684779999999,0,11,51,184,140,70,1,13,1,7.42509271833333,67.3043907433333,756.4049958
11,14,1,NoFlickerHalf,70,1093_half_length.avi,synth6_half_length.wav,synth,4,5.96509319999996,0,11,70,184,51,140,1,14,3,7.42509271833333,67.3043907433333,763.9133295
11,15,1,NoFlickerFull,166,1227_half_amp.avi,ep5_half_amp.wav,ep,1,12.2441385,0,11,87,25,166,177,3,9,4,7.42509271833333,67.3043907433333,773.0461291
11,16,1,NoFlickerFull,177,1283_half_amp.avi,ep38_half_amp.wav,ep,3,5.76402259999998,1,11,166,87,177,25,3,5,3,7.42509271833333,67.3043907433333,787.7625008
11,1,2,SyncTheta,63,1128_4Hz.avi,choir26_zero_4Hz.wav,choir,4,8.76503650000018,0,11,63,139,160,69,1,14,1,6.637419845,67.3043907433333,1036.6304609
11,2,2,AsyncTheta,139,1192_4Hz.avi,choir5_oneeighty_4Hz.wav,choir,3,13.3265652999999,0,11,139,69,63,160,1,7,2,6.637419845,67.3043907433333,1047.6716415
11,3,2,AsyncTheta,137,1303_4Hz.avi,orch10_oneeighty_4Hz.wav,orch,1,13.8848075000001,1,11,137,142,42,30,1,9,4,6.637419845,67.3043907433333,1062.8715201
11,4,2,AsyncTheta,142,1155_4Hz.avi,orch9_oneeighty_4Hz.wav,orch,4,4.86786419999999,0,11,142,30,137,42,1,10,3,6.637419845,67.3043907433333,1078.6625469
11,5,2,AsyncTheta,187,1164_4Hz.avi,dar12_oneeighty_4Hz.wav,dar,1,4.81872129999988,0,11,31,187,154,29,2,3,1,6.637419845,67.3043907433333,1085.7705602
11,6,2,AsyncTheta,160,1421_4Hz.avi,choir13_oneeighty_4Hz.wav,choir,1,7.18345260000001,0,11,139,69,63,160,4,4,3,6.637419845,67.3043907433333,1092.453915
11,7,2,SyncTheta,21,1112_4Hz.avi,acoustic32_zero_4Hz.wav,acoustic,2,7.85577260000014,0,11,21,105,39,96,1,12,2,6.637419845,67.3043907433333,1102.820393
11,8,2,SyncTheta,30,1016_4Hz.avi,orch14_zero_4Hz.wav,orch,1,4.76761339999985,0,11,142,42,30,137,3,13,2,6.637419845,67.3043907433333,1114.1780805
11,9,2,SyncTheta,69,1216_4Hz.avi,choir32_zero_4Hz.wav,choir,2,4.97292190000007,0,11,69,160,139,63,1,11,1,6.637419845,67.3043907433333,1121.2863673
11,10,2,AsyncTheta,96,1027_4Hz.avi,acoustic40_oneeighty_4Hz.wav,acoustic,2,7.19825040000001,1,11,39,96,105,21,2,6,1,6.637419845,67.3043907433333,1128.4361645
11,11,2,SyncTheta,42,1339_4Hz.avi,orch31_zero_4Hz.wav,orch,3,4.66813470000011,1,11,142,30,42,137,3,8,2,6.637419845,67.3043907433333,1139.1943657
11,12,2,SyncTheta,31,1404_4Hz.avi,dar8_zero_4Hz.wav,dar,4,7.74175949999994,0,11,154,31,29,187,2,1,1,6.637419845,67.3043907433333,1147.452291
11,13,2,AsyncTheta,154,1074_4Hz.avi,dar5_oneeighty_4Hz.wav,dar,4,11.5857857999999,0,11,31,187,154,29,3,5,1,6.637419845,67.3043907433333,1158.3102606
11,14,2,SyncTheta,29,1158_4Hz.avi,dar23_zero_4Hz.wav,dar,2,4.30872680000016,1,11,187,29,31,154,2,15,1,6.637419845,67.3043907433333,1172.0515575
11,15,2,SyncTheta,39,1061_4Hz.avi,acoustic11_zero_4Hz.wav,acoustic,2,5.29250819999993,0,11,39,21,105,96,1,16,2,6.637419845,67.3043907433333,1179.9265478
11,16,2,AsyncTheta,105,1003_4Hz.avi,acoustic6_oneeighty_4Hz.wav,acoustic,2,5.04465619999996,1,11,39,105,21,96,2,2,4,6.637419845,67.3043907433333,1186.9344311
11,1,3,AsyncTheta,78,1301_4Hz.avi,choir11_oneeighty_4Hz.wav,choir,2,10.1089271000001,1,11,88,78,13,52,2,11,1,5.96860838166667,67.3043907433333,1380.0706364
11,2,3,SyncTheta,52,1387_4Hz.avi,choir2_zero_4Hz.wav,choir,2,9.52726029999985,1,11,78,52,88,13,2,8,2,5.96860838166667,67.3043907433333,1393.7954953
11,3,3,AsyncTheta,158,1206_4Hz.avi,orch6_oneeighty_4Hz.wav,orch,4,6.17452329999992,0,11,57,33,158,188,3,4,1,5.96860838166667,67.3043907433333,1406.136594
11,4,3,AsyncTheta,188,1036_4Hz.avi,orch26_oneeighty_4Hz.wav,orch,3,9.5239810999999,0,11,57,188,158,33,2,7,1,5.96860838166667,67.3043907433333,1415.3029268
11,5,3,AsyncTheta,147,1304_4Hz.avi,dar10_oneeighty_4Hz.wav,dar,1,7.31544669999994,1,11,147,136,80,34,1,3,1,5.96860838166667,67.3043907433333,1426.5442293
11,6,3,SyncTheta,13,1201_4Hz.avi,choir7_zero_4Hz.wav,choir,2,5.81564739999999,0,11,52,88,78,13,4,6,1,5.96860838166667,67.3043907433333,1435.8356494
11,7,3,SyncTheta,20,1236_4Hz.avi,acoustic25_zero_4Hz.wav,acoustic,4,16.3498006,0,11,104,20,60,175,2,14,2,5.96860838166667,67.3043907433333,1443.8854011
11,8,3,SyncTheta,33,1136_4Hz.avi,orch38_zero_4Hz.wav,orch,1,6.61260570000013,1,11,33,158,188,57,1,16,3,5.96860838166667,67.3043907433333,1461.8933011
11,9,3,AsyncTheta,88,1191_4Hz.avi,choir20_oneeighty_4Hz.wav,choir,2,5.08869629999981,0,11,78,13,52,88,4,10,4,5.96860838166667,67.3043907433333,1470.3514838
11,10,3,AsyncTheta,175,1103_4Hz.avi,acoustic10_oneeighty_4Hz.wav,acoustic,3,10.0901303999999,0,11,20,60,104,175,4,9,3,5.96860838166667,67.3043907433333,1477.9929105
11,11,3,SyncTheta,57,1309_4Hz.avi,orch7_zero_4Hz.wav,orch,1,6.22840669999982,1,11,57,188,33,158,1,2,4,5.96860838166667,67.3043907433333,1490.0427684
11,12,3,SyncTheta,80,1082_4Hz.avi,dar15_zero_4Hz.wav,dar,4,8.99980809999988,0,11,147,34,80,136,3,1,1,5.96860838166667,67.3043907433333,1499.2338838
11,13,3,AsyncTheta,136,1175_4Hz.avi,dar4_oneeighty_4Hz.wav,dar,1,5.83765530000005,1,11,136,80,34,147,1,12,2,5.96860838166667,67.3043907433333,1511.0588452
11,14,3,SyncTheta,34,1319_4Hz.avi,dar22_zero_4Hz.wav,dar,2,6.97139789999983,0,11,147,80,136,34,4,13,2,5.96860838166667,67.3043907433333,1520.1502525
11,15,3,SyncTheta,60,1249_4Hz.avi,acoustic20_zero_4Hz.wav,acoustic,4,6.9433489999999,0,11,175,60,20,104,2,15,3,5.96860838166667,67.3043907433333,1530.6916323
11,16,3,AsyncTheta,104,1111_4Hz.avi,acoustic31_oneeighty_4Hz.wav,acoustic,2,9.49944840000012,0,11,104,60,20,175,1,5,3,5.96860838166667,67.3043907433333,1540.7996718
11,1,4,NoFlickerFull,185,1131_half_amp.avi,guitar45_half_amp.wav,guitar,1,6.33352289999993,1,11,185,93,172,3,1,14,1,5.28750881,67.3043907433333,1724.9859587
11,2,4,NoFlickerHalf,93,1046_half_length.avi,guitar18_half_length.wav,guitar,2,12.8667312,1,11,3,93,172,185,2,8,1,5.28750881,67.3043907433333,1734.0943371
11,3,4,NoFlickerHalf,108,1415_half_length.avi,willow3_half_length.wav,willow,1,7.00947310000015,1,11,108,118,167,66,1,5,2,5.28750881,67.3043907433333,1750.3852954
11,4,4,NoFlickerFull,118,1020_half_amp.avi,willow22_half_amp.wav,willow,2,5.6631668,1,11,167,118,66,108,2,12,3,5.28750881,67.3043907433333,1760.2599778
11,5,4,NoFlickerFull,125,1050_half_amp.avi,synth36_half_amp.wav,synth,4,5.70337460000019,0,11,125,61,89,131,1,6,2,5.28750881,67.3043907433333,1769.3182977
11,6,4,NoFlickerHalf,3,1156_half_length.avi,guitar31_half_length.wav,guitar,4,6.17735070000003,1,11,185,93,172,3,4,4,3,5.28750881,67.3043907433333,1777.7431362
11,7,4,NoFlickerHalf,6,1007_half_length.avi,ep8_half_length.wav,ep,4,5.48663759999999,0,11,144,123,6,101,3,10,2,5.28750881,67.3043907433333,1785.8260865
11,8,4,NoFlickerFull,167,1177_half_amp.avi,willow24_half_amp.wav,willow,3,5.02888949999988,0,11,118,66,108,167,4,16,5,5.28750881,67.3043907433333,1793.8341961
11,9,4,NoFlickerFull,172,1350_half_amp.avi,guitar10_half_amp.wav,guitar,1,7.18584469999996,0,11,185,93,3,172,4,13,2,5.28750881,67.3043907433333,1801.7424714
11,10,4,NoFlickerHalf,101,1295_half_length.avi,ep40_half_length.wav,ep,2,3.45776239999987,0,11,123,144,6,101,4,7,1,5.28750881,67.3043907433333,1810.5670706
11,11,4,NoFlickerHalf,66,1215_half_length.avi,willow18_half_length.wav,willow,3,7.25041090000013,0,11,66,118,167,108,1,1,5,5.28750881,67.3043907433333,1816.9001466
11,12,4,NoFlickerHalf,61,1207_half_length.avi,synth46_half_length.wav,synth,2,5.88189289999991,0,11,89,131,125,61,4,3,3,5.28750881,67.3043907433333,1827.3998514
11,13,4,NoFlickerFull,131,1366_half_amp.avi,synth34_half_amp.wav,synth,3,4.9332238999998,0,11,131,61,125,89,1,9,1,5.28750881,67.3043907433333,1836.1329886
11,14,4,NoFlickerHalf,89,1393_half_length.avi,synth41_half_length.wav,synth,1,6.30922400000009,0,11,61,89,125,131,2,15,1,5.28750881,67.3043907433333,1844.5077731
11,15,4,NoFlickerFull,144,1255_half_amp.avi,ep28_half_amp.wav,ep,4,7.33521199999996,1,11,6,123,101,144,4,11,4,5.28750881,67.3043907433333,1852.466095
11,16,4,NoFlickerFull,123,1067_half_amp.avi,ep37_half_amp.wav,ep,1,4.58040849999998,0,11,101,6,123,144,3,2,4,5.28750881,67.3043907433333,1863.1741476
11,1,5,NoFlickerFull,170,1062_half_amp.avi,guitar3_half_amp.wav,guitar,1,7.98056769999994,0,11,146,73,59,170,4,15,1,5.63590920333333,67.3043907433333,2058.602113
11,2,5,NoFlickerFull,146,1005_half_amp.avi,guitar14_half_amp.wav,guitar,4,7.14103350000005,1,11,170,59,73,146,4,3,1,5.63590920333333,67.3043907433333,2068.3768587
11,3,5,NoFlickerHalf,55,1044_half_length.avi,willow4_half_length.wav,willow,3,4.90391909999971,1,11,119,92,55,152,3,11,3,5.63590920333333,67.3043907433333,2078.742959
11,4,5,NoFlickerFull,152,1445_half_amp.avi,willow2_half_amp.wav,willow,2,6.43766489999962,0,11,92,119,152,55,3,13,3,5.63590920333333,67.3043907433333,2085.8097108
11,5,5,NoFlickerHalf,35,1039_half_length.avi,synth5_half_length.wav,synth,2,7.12816350000003,0,11,35,135,71,129,1,10,1,5.63590920333333,67.3043907433333,2095.1175697
11,6,5,NoFlickerHalf,59,1346_half_length.avi,guitar33_half_length.wav,guitar,1,5.96300920000022,0,11,73,170,146,59,4,2,5,5.63590920333333,67.3043907433333,2104.05899
11,7,5,NoFlickerHalf,65,1013_half_length.avi,ep22_half_length.wav,ep,4,4.65053829999988,0,11,132,65,176,16,2,8,3,5.63590920333333,67.3043907433333,2112.9339767
11,8,5,NoFlickerHalf,92,1030_half_length.avi,willow23_half_length.wav,willow,4,8.00881470000013,0,11,92,152,55,119,1,14,2,5.63590920333333,67.3043907433333,2120.9835343
11,9,5,NoFlickerHalf,73,1369_half_length.avi,guitar19_half_length.wav,guitar,1,6.11614669999972,0,11,59,73,146,170,2,5,1,5.63590920333333,67.3043907433333,2131.8001539
11,10,5,NoFlickerFull,176,1405_half_amp.avi,ep46_half_amp.wav,ep,3,10.3760344000002,1,11,65,16,176,132,3,7,1,5.63590920333333,67.3043907433333,2141.049627
11,11,5,NoFlickerFull,119,1189_half_amp.avi,willow11_half_amp.wav,willow,2,7.53254919999972,0,11,119,152,55,92,1,6,3,5.63590920333333,67.3043907433333,2154.2826444
11,12,5,NoFlickerHalf,71,1076_half_length.avi,synth21_half_length.wav,synth,4,5.00464610000017,0,11,129,135,71,35,3,4,2,5.63590920333333,67.3043907433333,2163.7491198
11,13,5,NoFlickerFull,135,1154_half_amp.avi,synth38_half_amp.wav,synth,2,8.29681179999989,0,11,135,35,71,129,1,12,2,5.63590920333333,67.3043907433333,2172.1654386
11,14,5,NoFlickerFull,129,1286_half_amp.avi,synth30_half_amp.wav,synth,1,6.87405840000019,0,11,135,129,71,35,2,16,2,5.63590920333333,67.3043907433333,2182.5319658
11,15,5,NoFlickerHalf,16,1442_half_length.avi,ep34_half_length.wav,ep,3,5.47870090000015,0,11,65,176,132,16,4,9,2,5.63590920333333,67.3043907433333,2192.0651338
11,16,5,NoFlickerFull,132,1356_half_amp.avi,ep30_half_amp.wav,ep,2,5.45853660000012,0,11,176,65,132,16,3,1,4,5.63590920333333,67.3043907433333,2200.6647049
11,1,6,SyncTheta,11,1448_4Hz.avi,choir36_zero_4Hz.wav,choir,4,4.90132859999994,0,11,11,10,159,181,1,8,1,5.62043869833333,67.3043907433333,2385.3762833
11,2,6,AsyncTheta,181,1168_4Hz.avi,choir1_oneeighty_4Hz.wav,choir,2,11.7690269,0,11,11,10,159,181,4,4,3,5.62043869833333,67.3043907433333,2393.259412
11,3,6,AsyncTheta,134,1026_4Hz.avi,orch16_oneeighty_4Hz.wav,orch,2,12.9538109999999,0,11,85,28,134,143,3,12,4,5.62043869833333,67.3043907433333,2408.6505522
11,4,6,SyncTheta,85,1383_4Hz.avi,orch23_zero_4Hz.wav,orch,3,5.78327579999996,0,11,85,28,134,143,1,15,3,5.62043869833333,67.3043907433333,2424.01685
11,5,6,SyncTheta,14,1416_4Hz.avi,dar1_zero_4Hz.wav,dar,1,7.09343379999973,0,11,64,103,126,14,4,6,2,5.62043869833333,67.3043907433333,2433.03353
11,6,6,AsyncTheta,159,1091_4Hz.avi,choir8_oneeighty_4Hz.wav,choir,3,5.1065007000002,1,11,11,181,159,10,3,1,1,5.62043869833333,67.3043907433333,2441.8663592
11,7,6,AsyncTheta,190,1427_4Hz.avi,acoustic46_oneeighty_4Hz.wav,acoustic,4,8.38178289999996,0,11,83,190,5,47,2,11,3,5.62043869833333,67.3043907433333,2450.2830144
11,8,6,SyncTheta,28,1148_4Hz.avi,orch19_zero_4Hz.wav,orch,4,4.55670719999989,0,11,85,28,134,143,2,16,2,5.62043869833333,67.3043907433333,2462.1074877
11,9,6,SyncTheta,10,1179_4Hz.avi,choir4_zero_4Hz.wav,choir,2,4.58345729999974,0,11,10,11,159,181,1,5,2,5.62043869833333,67.3043907433333,2470.0491765
11,10,6,SyncTheta,5,1381_4Hz.avi,acoustic1_zero_4Hz.wav,acoustic,3,5.21465400000034,0,11,190,83,47,5,4,10,2,5.62043869833333,67.3043907433333,2478.2156179
11,11,6,AsyncTheta,143,1127_4Hz.avi,orch11_oneeighty_4Hz.wav,orch,3,9.99264119999998,0,11,143,28,134,85,1,9,2,5.62043869833333,67.3043907433333,2486.9235234
11,12,6,AsyncTheta,103,1084_4Hz.avi,dar20_oneeighty_4Hz.wav,dar,2,5.26596289999998,0,11,64,126,103,14,3,2,2,5.62043869833333,67.3043907433333,2499.3316474
11,13,6,AsyncTheta,126,1298_4Hz.avi,dar9_oneeighty_4Hz.wav,dar,3,7.78972750000003,0,11,126,64,103,14,1,7,2,5.62043869833333,67.3043907433333,2506.839566
11,14,6,SyncTheta,64,1098_4Hz.avi,dar11_zero_4Hz.wav,dar,3,4.93660700000009,0,11,64,103,126,14,1,13,2,5.62043869833333,67.3043907433333,2517.9895176
11,15,6,SyncTheta,47,1292_4Hz.avi,acoustic28_zero_4Hz.wav,acoustic,4,9.24998370000003,0,11,47,5,190,83,1,14,2,5.62043869833333,67.3043907433333,2525.8640824
11,16,6,AsyncTheta,83,1139_4Hz.avi,acoustic27_oneeighty_4Hz.wav,acoustic,3,5.95005070000025,0,11,83,190,5,47,1,3,2,5.62043869833333,67.3043907433333,2537.6139869
11,1,7,SyncTheta,38,1184_4Hz.avi,choir33_zero_4Hz.wav,choir,1,7.31636339999977,0,11,68,121,76,38,4,14,1,5.25197376,67.3043907433333,2724.2588596
11,2,7,AsyncTheta,121,1354_4Hz.avi,choir22_oneeighty_4Hz.wav,choir,1,7.08600980000028,0,11,38,76,68,121,4,3,1,5.25197376,67.3043907433333,2733.4917437
11,3,7,AsyncTheta,165,1410_4Hz.avi,orch43_oneeighty_4Hz.wav,orch,4,5.49365599999965,0,11,81,91,165,141,3,12,1,5.25197376,67.3043907433333,2742.9583501
11,4,7,AsyncTheta,141,1401_4Hz.avi,orch12_oneeighty_4Hz.wav,orch,3,4.33176460000004,0,11,81,91,165,141,4,13,3,5.25197376,67.3043907433333,2751.457812
11,5,7,SyncTheta,49,1221_4Hz.avi,dar21_zero_4Hz.wav,dar,3,6.9928417000001,0,11,49,191,116,40,1,6,2,5.25197376,67.3043907433333,2757.6993881
11,6,7,AsyncTheta,76,1293_4Hz.avi,choir23_oneeighty_4Hz.wav,choir,4,5.01698399999987,0,11,76,38,68,121,1,1,3,5.25197376,67.3043907433333,2767.7826564
11,7,7,SyncTheta,1,1064_4Hz.avi,acoustic12_zero_4Hz.wav,acoustic,1,6.9487680000002,0,11,9,148,1,107,3,11,3,5.25197376,67.3043907433333,2774.7324962
11,8,7,SyncTheta,81,1444_4Hz.avi,orch4_zero_4Hz.wav,orch,2,6.78479389999984,0,11,141,91,165,81,4,16,3,5.25197376,67.3043907433333,2784.6821928
11,9,7,SyncTheta,68,1023_4Hz.avi,choir3_zero_4Hz.wav,choir,1,6.20443920000025,0,11,76,38,121,68,4,10,1,5.25197376,67.3043907433333,2794.598333
11,10,7,SyncTheta,9,1054_4Hz.avi,acoustic44_zero_4Hz.wav,acoustic,4,7.05206920000001,0,11,9,148,107,1,1,9,2,5.25197376,67.3043907433333,2803.4814752
11,11,7,SyncTheta,91,1340_4Hz.avi,orch46_zero_4Hz.wav,orch,3,6.6183818999998,1,11,165,81,91,141,3,2,2,5.25197376,67.3043907433333,2812.4644388
11,12,7,SyncTheta,40,1239_4Hz.avi,dar6_zero_4Hz.wav,dar,3,5.68732910000017,1,11,191,116,40,49,3,4,1,5.25197376,67.3043907433333,2821.2392446
11,13,7,AsyncTheta,191,1314_4Hz.avi,dar19_oneeighty_4Hz.wav,dar,4,4.0649427999997,0,11,40,191,116,49,2,7,3,5.25197376,67.3043907433333,2829.3641839
11,14,7,AsyncTheta,116,1420_4Hz.avi,dar18_oneeighty_4Hz.wav,dar,1,5.22321959999999,0,11,191,49,116,40,3,8,2,5.25197376,67.3043907433333,2836.847251
11,15,7,AsyncTheta,148,1121_4Hz.avi,acoustic26_oneeighty_4Hz.wav,acoustic,4,5.54710870000008,0,11,9,148,1,107,2,15,1,5.25197376,67.3043907433333,2844.4637109
11,16,7,AsyncTheta,107,1265_4Hz.avi,acoustic16_oneeighty_4Hz.wav,acoustic,4,6.95486649999975,0,11,148,107,1,9,2,5,2,5.25197376,67.3043907433333,2851.946902
11,1,8,NoFlickerFull,168,1204_half_amp.avi,guitar36_half_amp.wav,guitar,1,6.84736440000006,1,11,168,46,161,77,1,15,4,4.84826375833333,67.3043907433333,3047.1080071
11,2,8,NoFlickerHalf,77,1008_half_length.avi,guitar42_half_length.wav,guitar,3,2.96290920000001,0,11,168,46,161,77,4,2,2,4.84826375833333,67.3043907433333,3055.5411633
11,3,8,NoFlickerHalf,18,1101_half_length.avi,willow13_half_length.wav,willow,4,3.21508039999981,1,11,94,178,153,18,4,9,2,4.84826375833333,67.3043907433333,3061.4492383
11,4,8,NoFlickerFull,153,1157_half_amp.avi,willow1_half_amp.wav,willow,2,2.85732460000008,0,11,153,94,178,18,1,10,1,4.84826375833333,67.3043907433333,3066.4659008
11,5,8,NoFlickerHalf,50,1049_half_length.avi,synth43_half_length.wav,synth,3,4.30098110000017,1,11,127,186,50,100,3,6,2,4.84826375833333,67.3043907433333,3071.1990078
11,6,8,NoFlickerFull,161,1433_half_amp.avi,guitar2_half_amp.wav,guitar,3,4.79250769999999,0,11,161,46,77,168,1,1,3,4.84826375833333,67.3043907433333,3078.9572623
11,7,8,NoFlickerHalf,99,1173_half_length.avi,ep6_half_length.wav,ep,3,5.89993700000014,1,11,150,138,99,86,3,12,1,4.84826375833333,67.3043907433333,3086.7152413
11,8,8,NoFlickerFull,178,1057_half_amp.avi,willow9_half_amp.wav,willow,2,4.13213050000013,0,11,178,153,94,18,1,13,2,4.84826375833333,67.3043907433333,3094.7652791
11,9,8,NoFlickerHalf,46,1210_half_length.avi,guitar48_half_length.wav,guitar,3,4.91857729999992,0,11,161,46,77,168,2,5,3,4.84826375833333,67.3043907433333,3101.6482219
11,10,8,NoFlickerFull,150,1394_half_amp.avi,ep11_half_amp.wav,ep,4,5.22977540000011,0,11,150,99,86,138,1,11,3,4.84826375833333,67.3043907433333,3108.1732493
11,11,8,NoFlickerHalf,94,1109_half_length.avi,willow6_half_length.wav,willow,2,3.34418550000009,0,11,94,18,178,153,1,8,1,4.84826375833333,67.3043907433333,3116.6980068
11,12,8,NoFlickerFull,127,1411_half_amp.avi,synth28_half_amp.wav,synth,1,2.76704259999997,1,11,127,100,50,186,1,3,2,4.84826375833333,67.3043907433333,3122.7726354
11,13,8,NoFlickerHalf,100,1107_half_length.avi,synth23_half_length.wav,synth,1,3.93551879999995,0,11,186,100,50,127,2,7,3,4.84826375833333,67.3043907433333,3128.905738
11,14,8,NoFlickerFull,186,1031_half_amp.avi,synth7_half_amp.wav,synth,3,3.22203009999976,0,11,127,186,100,50,2,14,1,4.84826375833333,67.3043907433333,3135.5472411
11,15,8,NoFlickerHalf,86,1278_half_length.avi,ep35_half_length.wav,ep,2,4.09783349999998,0,11,150,99,86,138,3,16,3,4.84826375833333,67.3043907433333,3141.6642522
11,16,8,NoFlickerFull,138,1149_half_amp.avi,ep2_half_amp.wav,ep,4,2.03171030000021,0,11,150,138,99,86,2,4,2,4.84826375833333,67.3043907433333,3147.9887888
11,1,9,NoFlickerHalf,67,1310_half_length.avi,guitar21_half_length.wav,guitar,2,3.85176790000014,0,11,164,183,15,67,4,13,4,6.03996544,67.3043907433333,3421.7645431
11,2,9,NoFlickerFull,183,1374_half_amp.avi,guitar16_half_amp.wav,guitar,4,4.5042355999999,1,11,67,164,15,183,4,6,3,6.03996544,67.3043907433333,3428.8391132
11,3,9,NoFlickerFull,130,1081_half_amp.avi,willow5_half_amp.wav,willow,3,3.05754810000008,0,11,32,130,37,120,2,3,2,6.03996544,67.3043907433333,3435.0473263
11,4,9,NoFlickerHalf,37,1237_half_length.avi,willow15_half_length.wav,willow,2,2.03681760000018,0,11,120,32,130,37,4,11,2,6.03996544,67.3043907433333,3440.7804926
11,5,9,NoFlickerHalf,8,1252_half_length.avi,synth25_half_length.wav,synth,2,1.89448140000013,1,11,163,8,54,111,2,10,3,6.03996544,67.3043907433333,3444.9969535
11,6,9,NoFlickerHalf,15,1422_half_length.avi,guitar37_half_length.wav,guitar,4,2.90752259999999,0,11,183,15,164,67,2,4,3,6.03996544,67.3043907433333,3449.2470873
11,7,9,NoFlickerHalf,106,1113_half_length.avi,ep29_half_length.wav,ep,3,3.52656530000013,0,11,106,180,189,41,1,9,2,6.03996544,67.3043907433333,3454.9633261
11,8,9,NoFlickerFull,120,1365_half_amp.avi,willow21_half_amp.wav,willow,3,3.2044649999998,0,11,120,37,130,32,1,12,3,6.03996544,67.3043907433333,3460.1634828
11,9,9,NoFlickerFull,164,1087_half_amp.avi,guitar17_half_amp.wav,guitar,3,5.43470120000029,0,11,164,67,183,15,1,8,3,6.03996544,67.3043907433333,3466.1380357
11,10,9,NoFlickerFull,180,1006_half_amp.avi,ep4_half_amp.wav,ep,3,3.68917610000017,0,11,180,189,41,106,1,7,2,6.03996544,67.3043907433333,3474.1628317
11,11,9,NoFlickerHalf,32,1360_half_length.avi,willow10_half_length.wav,willow,1,2.78067190000002,0,11,120,32,130,37,2,2,2,6.03996544,67.3043907433333,3481.0127634
11,12,9,NoFlickerFull,163,1441_half_amp.avi,synth27_half_amp.wav,synth,3,4.09216620000007,0,11,111,163,54,8,2,1,3,6.03996544,67.3043907433333,3485.4044596
11,13,9,NoFlickerFull,111,1390_half_amp.avi,synth3_half_amp.wav,synth,1,3.10361419999981,0,11,8,111,54,163,2,14,3,6.03996544,67.3043907433333,3491.5542639
11,14,9,NoFlickerHalf,54,1181_half_length.avi,synth12_half_length.wav,synth,3,4.8391217999997,0,11,8,163,111,54,4,15,2,6.03996544,67.3043907433333,3497.77055
11,15,9,NoFlickerHalf,41,1132_half_length.avi,ep10_half_length.wav,ep,2,2.08237529999997,0,11,106,180,41,189,3,16,1,6.03996544,67.3043907433333,3506.1369307
11,16,9,NoFlickerFull,189,1051_half_amp.avi,ep14_half_amp.wav,ep,4,1.92059319999998,0,11,189,180,41,106,1,5,1,6.03996544,67.3043907433333,3510.7285046
11,1,10,AsyncTheta,97,1368_4Hz.avi,choir30_oneeighty_4Hz.wav,choir,1,5.10972310000034,1,11,97,98,19,62,1,11,2,4.36176006,67.3043907433333,3675.4907071
11,2,10,SyncTheta,19,1247_4Hz.avi,choir38_zero_4Hz.wav,choir,4,3.54623320000019,1,11,97,98,62,19,4,5,1,4.36176006,67.3043907433333,3682.5655696
11,3,10,AsyncTheta,145,1352_4Hz.avi,orch39_oneeighty_4Hz.wav,orch,3,2.7097718,0,11,102,145,110,74,2,13,3,4.36176006,67.3043907433333,3689.2902473
11,4,10,AsyncTheta,110,1443_4Hz.avi,orch3_oneeighty_4Hz.wav,orch,4,5.52758240000003,0,11,74,110,102,145,2,15,2,4.36176006,67.3043907433333,3694.6820155
11,5,10,AsyncTheta,82,1449_4Hz.avi,dar17_oneeighty_4Hz.wav,dar,3,3.7456302999999,0,11,82,45,114,56,1,4,2,4.36176006,67.3043907433333,3703.2484531
11,6,10,AsyncTheta,98,1014_4Hz.avi,choir41_oneeighty_4Hz.wav,choir,2,3.03888740000002,0,11,62,97,98,19,3,1,1,4.36176006,67.3043907433333,3710.2313934
11,7,10,AsyncTheta,113,1037_4Hz.avi,acoustic23_oneeighty_4Hz.wav,acoustic,1,3.07260649999989,0,11,169,4,58,113,4,12,4,4.36176006,67.3043907433333,3716.5645496
11,8,10,SyncTheta,74,1337_4Hz.avi,orch24_zero_4Hz.wav,orch,1,4.34848720000036,0,11,145,74,110,102,2,16,1,4.36176006,67.3043907433333,3722.7977831
11,9,10,SyncTheta,62,1058_4Hz.avi,choir19_zero_4Hz.wav,choir,3,5.10870800000021,0,11,97,62,19,98,2,7,2,4.36176006,67.3043907433333,3729.1477986
11,10,10,SyncTheta,4,1167_4Hz.avi,acoustic37_zero_4Hz.wav,acoustic,4,3.67103589999988,1,11,58,113,169,4,4,6,2,4.36176006,67.3043907433333,3736.0058159
11,11,10,SyncTheta,102,1012_4Hz.avi,orch18_zero_4Hz.wav,orch,1,3.60102070000039,0,11,110,102,145,74,2,9,1,4.36176006,67.3043907433333,3742.8307542
11,12,10,SyncTheta,45,1203_4Hz.avi,dar2_zero_4Hz.wav,dar,4,3.30271089999997,1,11,114,56,82,45,4,3,3,4.36176006,67.3043907433333,3748.4638739
11,13,10,AsyncTheta,114,1322_4Hz.avi,dar14_oneeighty_4Hz.wav,dar,3,4.06058150000035,0,11,56,114,82,45,2,8,2,4.36176006,67.3043907433333,3754.0301004
11,14,10,SyncTheta,56,1063_4Hz.avi,dar16_zero_4Hz.wav,dar,1,4.65562360000013,0,11,82,114,45,56,4,10,1,4.36176006,67.3043907433333,3760.8965673
11,15,10,SyncTheta,58,1323_4Hz.avi,acoustic29_zero_4Hz.wav,acoustic,2,2.07013430000006,0,11,4,113,169,58,4,14,3,4.36176006,67.3043907433333,3767.7300295
11,16,10,AsyncTheta,169,1083_4Hz.avi,acoustic43_oneeighty_4Hz.wav,acoustic,4,2.90477580000015,0,11,4,113,169,58,3,2,2,4.36176006,67.3043907433333,3771.704663
11,1,11,AsyncTheta,124,1183_4Hz.avi,choir24_oneeighty_4Hz.wav,choir,2,6.91895569999997,0,11,124,182,72,12,1,11,2,4.723401285,67.3043907433333,3953.1747618
11,2,11,SyncTheta,72,1097_4Hz.avi,choir29_zero_4Hz.wav,choir,4,4.3705301,1,11,12,182,124,72,4,5,1,4.723401285,67.3043907433333,3961.7747024
11,3,11,SyncTheta,36,1284_4Hz.avi,orch29_zero_4Hz.wav,orch,1,4.66682270000001,1,11,36,174,17,192,1,2,2,4.723401285,67.3043907433333,3968.890968
11,4,11,AsyncTheta,192,1231_4Hz.avi,orch32_oneeighty_4Hz.wav,orch,3,4.2528569000001,0,11,174,192,17,36,2,14,1,4.723401285,67.3043907433333,3976.6409501
11,5,11,SyncTheta,2,1431_4Hz.avi,dar24_zero_4Hz.wav,dar,3,5.02052709999998,0,11,162,122,43,2,4,8,3,4.723401285,67.3043907433333,3984.4072363
11,6,11,AsyncTheta,182,1277_4Hz.avi,choir39_oneeighty_4Hz.wav,choir,3,2.92994380000027,0,11,12,182,124,72,2,3,2,4.723401285,67.3043907433333,3991.5153063
11,7,11,SyncTheta,23,1330_4Hz.avi,acoustic47_zero_4Hz.wav,acoustic,2,2.88816980000001,0,11,44,133,79,23,4,9,2,4.723401285,67.3043907433333,3997.4485046
11,8,11,SyncTheta,17,1162_4Hz.avi,orch1_zero_4Hz.wav,orch,2,4.11883219999982,0,11,17,36,192,174,1,16,2,4.723401285,67.3043907433333,4003.2399645
11,9,11,SyncTheta,12,1077_4Hz.avi,choir18_zero_4Hz.wav,choir,1,2.68678339999997,0,11,124,12,182,72,2,10,3,4.723401285,67.3043907433333,4010.8981072
11,10,11,SyncTheta,44,1254_4Hz.avi,acoustic48_zero_4Hz.wav,acoustic,1,3.06627130000015,0,11,79,133,44,23,3,6,1,4.723401285,67.3043907433333,4015.5232139
11,11,11,AsyncTheta,174,1119_4Hz.avi,orch45_oneeighty_4Hz.wav,orch,4,2.90387469999996,0,11,17,174,36,192,2,1,1,4.723401285,67.3043907433333,4021.0979011
11,12,11,SyncTheta,43,1141_4Hz.avi,dar13_zero_4Hz.wav,dar,2,4.1363409999999,0,11,43,2,162,122,1,7,1,4.723401285,67.3043907433333,4027.5810917
11,13,11,AsyncTheta,122,1289_4Hz.avi,dar3_oneeighty_4Hz.wav,dar,3,3.98158319999993,0,11,122,2,43,162,1,12,2,4.723401285,67.3043907433333,4033.6641519
11,14,11,AsyncTheta,162,1358_4Hz.avi,dar7_oneeighty_4Hz.wav,dar,2,3.77453339999965,0,11,122,43,162,2,3,13,1,4.723401285,67.3043907433333,4040.6556976
11,15,11,AsyncTheta,133,1341_4Hz.avi,acoustic14_oneeighty_4Hz.wav,acoustic,2,4.01963130000013,0,11,133,44,23,79,1,15,2,4.723401285,67.3043907433333,4046.7721647
11,16,11,AsyncTheta,79,1071_4Hz.avi,acoustic17_oneeighty_4Hz.wav,acoustic,4,5.12128170000005,0,11,44,23,79,133,3,4,2,4.723401285,67.3043907433333,4053.1053745
11,1,12,NoFlickerFull,151,1259_half_amp.avi,guitar43_half_amp.wav,guitar,2,4.9819781999995,1,11,84,151,115,90,2,11,3,4.44400209,67.3043907433333,4214.1341448
11,2,12,NoFlickerHalf,90,1273_half_length.avi,guitar23_half_length.wav,guitar,3,4.39037570000073,0,11,90,115,151,84,1,8,3,4.44400209,67.3043907433333,4220.9422736
11,3,12,NoFlickerFull,171,1280_half_amp.avi,willow19_half_amp.wav,willow,3,6.29996680000022,0,11,48,156,27,171,4,7,3,4.44400209,67.3043907433333,4228.13407
11,4,12,NoFlickerHalf,27,1202_half_length.avi,willow16_half_length.wav,willow,2,5.3509297999999,0,11,48,171,27,156,3,10,4,4.44400209,67.3043907433333,4237.8168937
11,5,12,NoFlickerHalf,95,1359_half_length.avi,synth33_half_length.wav,synth,4,3.98897350000061,1,11,155,128,109,95,4,2,1,4.44400209,67.3043907433333,4245.6082872
11,6,12,NoFlickerFull,115,1370_half_amp.avi,guitar9_half_amp.wav,guitar,1,4.27970409999944,0,11,90,115,84,151,2,3,3,4.44400209,67.3043907433333,4252.5413881
11,7,12,NoFlickerHalf,26,1190_half_length.avi,ep7_half_length.wav,ep,2,4.47347720000016,0,11,26,117,173,24,1,14,3,4.44400209,67.3043907433333,4258.4495601
11,8,12,NoFlickerFull,156,1060_half_amp.avi,willow7_half_amp.wav,willow,3,3.44392619999962,0,11,171,48,27,156,4,15,3,4.44400209,67.3043907433333,4264.6994031
11,9,12,NoFlickerHalf,84,1294_half_length.avi,guitar6_half_length.wav,guitar,2,3.92370320000009,0,11,90,151,115,84,4,9,4,4.44400209,67.3043907433333,4270.924232
11,10,12,NoFlickerFull,173,1348_half_amp.avi,ep31_half_amp.wav,ep,3,4.89522600000055,0,11,173,26,24,117,1,13,3,4.44400209,67.3043907433333,4278.2157313
11,11,12,NoFlickerHalf,48,1021_half_length.avi,willow12_half_length.wav,willow,1,3.03811289999976,0,11,171,27,48,156,3,6,2,4.44400209,67.3043907433333,4285.8739863
11,12,12,NoFlickerHalf,109,1299_half_length.avi,synth18_half_length.wav,synth,1,4.54081379999934,0,11,95,109,155,128,2,1,2,4.44400209,67.3043907433333,4292.2321201
11,13,12,NoFlickerFull,128,1269_half_amp.avi,synth14_half_amp.wav,synth,2,4.7996705000005,1,11,155,128,109,95,2,4,3,4.44400209,67.3043907433333,4299.3402369
11,14,12,NoFlickerFull,155,1042_half_amp.avi,synth10_half_amp.wav,synth,2,4.74915949999922,1,11,128,155,109,95,2,12,4,4.44400209,67.3043907433333,4307.7066498
11,15,12,NoFlickerHalf,24,1217_half_length.avi,ep44_half_length.wav,ep,3,2.91171080000004,0,11,173,24,26,117,2,16,3,4.44400209,67.3043907433333,4314.6148637
11,16,12,NoFlickerFull,117,1144_half_amp.avi,ep39_half_amp.wav,ep,1,4.03486609999982,0,11,173,24,117,26,3,5,4,4.44400209,67.3043907433333,4321.0815261
