ParticipantID,TrialNumber,BlockNumber,Condition,ClipID,VideoFile,SoundFile,SoundCategory,Response,RT,Accuracy,ConditionID,Frame1,Frame2,Frame3,Frame4,CorrectKey,EncodingPosition,Rating,BlockDuration,ExperimentDuration,MemoryTestOnset,RunNumber,Age,Handedness,Sex,RelTheta4Hz,Theta4Hz,BroadTheta,Synchronicity
1,1,1,NoFlicker,168,1204_half_amp.avi,guitar36_half_amp.wav,guitar,2,7.10051309999972,1,1,179,168,112,151,2,15,3,6.10926495333333,NaN,3813.277997,1,NaN,NaN,NaN,6.30393802679917,1652.18305563421,373.765092154977,NaN
1,2,1,NoFlicker,166,1227_half_amp.avi,ep5_half_amp.wav,ep,4,6.57257569999956,0,1,166,138,117,177,1,8,4,6.10926495333333,NaN,3821.9780217,1,NaN,NaN,NaN,1.90555276134751,499.42146806191,228.611099377554,NaN
1,3,1,NoFlicker,112,1388_half_amp.avi,guitar39_half_amp.wav,guitar,3,6.0331798000002,1,1,168,151,112,179,3,13,2,6.10926495333333,NaN,3831.3113829,1,NaN,NaN,NaN,1.0382511249324,272.112591972522,306.57655144997,NaN
1,4,1,NoFlicker,167,1177_half_amp.avi,willow24_half_amp.wav,willow,4,5.17054929999995,0,1,153,167,130,118,2,4,1,6.10926495333333,NaN,3838.9614379,1,NaN,NaN,NaN,0.159595822358492,41.8280624475923,238.47471033363,NaN
1,5,1,NoFlicker,135,1154_half_amp.avi,synth38_half_amp.wav,synth,4,6.22866109999995,0,1,135,111,128,163,1,6,3,6.10926495333333,NaN,3847.2780787,1,NaN,NaN,NaN,0.160852909275806,42.1575291548183,343.176478372619,NaN
1,6,1,NoFlicker,118,1020_half_amp.avi,willow22_half_amp.wav,willow,1,6.90961169999991,0,1,153,167,130,118,4,3,1,6.10926495333333,NaN,3856.3114265,1,NaN,NaN,NaN,-0.030325642665736,-7.94797041952949,123.580346397902,NaN
1,7,1,NoFlicker,117,1144_half_amp.avi,ep39_half_amp.wav,ep,4,6.11725380000007,0,1,117,166,177,138,1,9,3,6.10926495333333,NaN,3866.5448594,1,NaN,NaN,NaN,0.193358689683075,50.6768863202511,249.86108941848,NaN
1,8,1,NoFlicker,128,1269_half_amp.avi,synth14_half_amp.wav,synth,3,8.34025639999982,0,1,111,128,135,163,2,12,3,6.10926495333333,NaN,3874.6448583,1,NaN,NaN,NaN,3.55971370896569,932.956296184934,365.733414019103,NaN
1,9,1,NoFlicker,151,1259_half_amp.avi,guitar43_half_amp.wav,guitar,2,9.22637579999991,1,1,112,151,168,179,2,5,2,6.10926495333333,NaN,3884.5281956,1,NaN,NaN,NaN,0.938783423197416,246.04335545865,261.046018369583,NaN
1,10,1,NoFlicker,177,1283_half_amp.avi,ep38_half_amp.wav,ep,1,6.11776359999976,0,1,166,177,117,138,2,2,4,6.10926495333333,NaN,3896.8949332,1,NaN,NaN,NaN,2.22425182963011,582.948494854442,405.680418675604,NaN
1,11,1,NoFlicker,111,1390_half_amp.avi,synth3_half_amp.wav,synth,1,7.50011020000011,0,1,163,135,111,128,3,11,4,6.10926495333333,NaN,3904.4615977,1,NaN,NaN,NaN,0.718348483447573,188.270123746003,312.305608128602,NaN
1,12,1,NoFlicker,138,1149_half_amp.avi,ep2_half_amp.wav,ep,2,5.56797419999975,1,1,166,138,177,117,2,7,3,6.10926495333333,NaN,3914.9283356,1,NaN,NaN,NaN,1.70225510635578,446.139703647412,385.453516517753,NaN
1,13,1,NoFlicker,130,1081_half_amp.avi,willow5_half_amp.wav,willow,2,6.63956899999994,1,1,118,130,153,167,2,1,3,6.10926495333333,NaN,3923.0283231,1,NaN,NaN,NaN,1.19267711136928,312.58570529565,253.873030965954,NaN
1,14,1,NoFlicker,163,1441_half_amp.avi,synth27_half_amp.wav,synth,4,5.02786590000005,0,1,163,111,135,128,1,14,1,6.10926495333333,NaN,3931.0950447,1,NaN,NaN,NaN,0.96163745230767,252.033109718355,258.450842835576,NaN
1,15,1,NoFlicker,179,1186_half_amp.avi,guitar30_half_amp.wav,guitar,2,5.47393139999986,0,1,179,112,168,151,1,16,3,6.10926495333333,NaN,3937.9283719,1,NaN,NaN,NaN,0.509197763373377,133.454344417072,357.501120900174,NaN
1,16,1,NoFlicker,153,1157_half_amp.avi,willow1_half_amp.wav,willow,3,5.31111220000003,0,1,118,167,130,153,4,10,5,6.10926495333333,NaN,3945.2117632,1,NaN,NaN,NaN,0.328285505703277,86.0395117508253,242.224426565952,NaN
1,1,2,SyncTheta,13,1201_4Hz.avi,choir7_zero_4Hz.wav,choir,3,6.61509949999981,1,1,10,68,13,52,3,10,3,5.75656962,NaN,4163.8958267,1,NaN,NaN,NaN,0.314873305099574,82.5243422675592,269.974963866482,-1.19107404928694
1,2,2,SyncTheta,9,1054_4Hz.avi,acoustic44_zero_4Hz.wav,acoustic,1,7.02890779999962,1,1,9,1,47,23,1,11,3,5.75656962,NaN,4172.0125174,1,NaN,NaN,NaN,1.36913044175799,358.83190907162,309.883608235414,2.88333569293958
1,3,2,SyncTheta,52,1387_4Hz.avi,choir2_zero_4Hz.wav,choir,3,6.38825399999951,0,1,52,68,13,10,1,7,2,5.75656962,NaN,4182.0458568,1,NaN,NaN,NaN,0.508853060196081,133.364002039604,170.702976844536,0.10319671963747
1,4,2,SyncTheta,85,1383_4Hz.avi,orch23_zero_4Hz.wav,orch,2,6.25697440000022,0,1,85,33,17,57,1,9,3,5.75656962,NaN,4191.345921,1,NaN,NaN,NaN,0.381580183027179,100.007377941089,222.141770428668,-2.29845737667083
1,5,2,SyncTheta,2,1431_4Hz.avi,dar24_zero_4Hz.wav,dar,1,7.49217580000004,1,1,2,31,43,56,1,4,3,5.75656962,NaN,4199.7626133,1,NaN,NaN,NaN,1.09409955585911,286.749764937834,333.586661775568,1.0376310798956
1,6,2,SyncTheta,57,1309_4Hz.avi,orch7_zero_4Hz.wav,orch,4,6.90487260000009,0,1,33,57,85,17,2,6,4,5.75656962,NaN,4208.6793357,1,NaN,NaN,NaN,2.22586727159824,583.371881923882,264.947421516779,0.343033309967112
1,7,2,SyncTheta,47,1292_4Hz.avi,acoustic28_zero_4Hz.wav,acoustic,3,4.89369929999975,0,1,47,9,23,1,1,16,1,5.75656962,NaN,4217.9126543,1,NaN,NaN,NaN,0.74908280753475,196.325204437998,521.899485097088,-0.0260191934841997
1,8,2,SyncTheta,56,1063_4Hz.avi,dar16_zero_4Hz.wav,dar,1,6.16644459999952,0,1,31,2,43,56,4,13,2,5.75656962,NaN,4225.0960426,1,NaN,NaN,NaN,1.33711699283711,350.441585811043,250.643369601126,-0.780023703040419
1,9,2,SyncTheta,68,1023_4Hz.avi,choir3_zero_4Hz.wav,choir,1,8.07266630000049,1,1,68,52,13,10,1,5,1,5.75656962,NaN,4233.5126965,1,NaN,NaN,NaN,1.1295112145983,296.03071635139,277.302134246533,-2.82856654937259
1,10,2,SyncTheta,23,1330_4Hz.avi,acoustic47_zero_4Hz.wav,acoustic,2,8.48321809999925,0,1,47,1,23,9,3,2,4,5.75656962,NaN,4243.2627576,1,NaN,NaN,NaN,0.681781559005744,178.686391687945,300.599927940336,-1.20726830696538
1,11,2,SyncTheta,31,1404_4Hz.avi,dar8_zero_4Hz.wav,dar,3,3.56215630000042,1,1,56,43,31,2,3,8,5,5.75656962,NaN,4253.9461009,1,NaN,NaN,NaN,0.979861152820144,256.809312953485,293.351548270054,-1.67123986157907
1,12,2,SyncTheta,1,1064_4Hz.avi,acoustic12_zero_4Hz.wav,acoustic,2,5.82143439999982,0,1,23,47,1,9,3,3,2,5.75656962,NaN,4259.5128143,1,NaN,NaN,NaN,0.989176042861457,259.250628750996,268.928680272399,-2.91159336821602
1,13,2,SyncTheta,33,1136_4Hz.avi,orch38_zero_4Hz.wav,orch,3,6.07863999999972,0,1,17,57,85,33,4,1,4,5.75656962,NaN,4268.2961745,1,NaN,NaN,NaN,2.28261806812363,598.245553589815,374.596812034269,-0.404862020523042
1,14,2,SyncTheta,43,1141_4Hz.avi,dar13_zero_4Hz.wav,dar,2,3.99101369999971,1,1,2,43,56,31,2,14,5,5.75656962,NaN,4275.8462311,1,NaN,NaN,NaN,0.913913093076446,239.525154004383,248.353648010247,0.399689912469193
1,15,2,SyncTheta,10,1179_4Hz.avi,choir4_zero_4Hz.wav,choir,3,5.58406970000033,1,1,13,52,10,68,3,15,5,5.75656962,NaN,4282.8628886,1,NaN,NaN,NaN,0.872053900399353,228.554384848719,359.950073136973,-0.259341066552001
1,16,2,SyncTheta,17,1162_4Hz.avi,orch1_zero_4Hz.wav,orch,1,5.84678469999926,1,1,17,57,85,33,1,12,2,5.75656962,NaN,4290.1629178,1,NaN,NaN,NaN,1.3231988676209,346.793819835133,345.461002559881,-1.60980745570479
1,1,3,SyncDelta,84,1294_1.7Hz.avi,guitar6_zero_1.7Hz.wav,guitar,1,7.83366959999967,0,1,3,84,46,67,2,10,1,5.21763532666667,NaN,4457.9301536,1,NaN,NaN,NaN,1.09692215555898,287.48953290147,194.84408702216,NaN
1,2,3,SyncDelta,65,1013_1.7Hz.avi,ep22_zero_1.7Hz.wav,ep,3,3.85073960000045,0,1,6,99,25,65,4,12,1,5.21763532666667,NaN,4468.46354,1,NaN,NaN,NaN,0.406296361777736,106.485178255447,314.590607833628,NaN
1,3,3,SyncDelta,3,1156_1.7Hz.avi,guitar31_zero_1.7Hz.wav,guitar,1,7.26844619999974,0,1,84,3,67,46,2,9,2,5.21763532666667,NaN,4474.9968937,1,NaN,NaN,NaN,1.13121651333132,296.477653751395,296.961759968355,NaN
1,4,3,SyncDelta,32,1360_1.7Hz.avi,willow10_zero_1.7Hz.wav,willow,3,8.73370979999982,0,1,92,32,55,18,2,7,1,5.21763532666667,NaN,4485.2135387,1,NaN,NaN,NaN,0.341804850649075,89.582762421718,205.534626941159,NaN
1,5,3,SyncDelta,70,1093_1.7Hz.avi,synth6_zero_1.7Hz.wav,synth,3,9.02244780000001,0,1,51,70,8,95,2,1,2,5.21763532666667,NaN,4496.3302701,1,NaN,NaN,NaN,1.06110410441002,278.102071136684,220.869735002919,NaN
1,6,3,SyncDelta,18,1101_1.7Hz.avi,willow13_zero_1.7Hz.wav,willow,2,3.95656370000052,0,1,55,32,18,92,3,5,1,5.21763532666667,NaN,4507.5302845,1,NaN,NaN,NaN,0.614778537988097,161.125740626489,328.365374339814,NaN
1,7,3,SyncDelta,6,1007_1.7Hz.avi,ep8_zero_1.7Hz.wav,ep,4,5.79365429999962,0,1,25,65,6,99,3,16,3,5.21763532666667,NaN,4513.0969965,1,NaN,NaN,NaN,7.46856221561392,1957.41644193361,474.628812041704,NaN
1,8,3,SyncDelta,95,1359_1.7Hz.avi,synth33_zero_1.7Hz.wav,synth,1,11.7685405000002,0,1,70,8,51,95,4,13,3,5.21763532666667,NaN,4521.0803842,1,NaN,NaN,NaN,0.958726277602864,251.270127357357,279.058027097368,NaN
1,9,3,SyncDelta,67,1310_1.7Hz.avi,guitar21_zero_1.7Hz.wav,guitar,3,6.94002799999998,0,1,84,46,3,67,4,6,3,5.21763532666667,NaN,4535.7137389,1,NaN,NaN,NaN,0.203583428779469,53.3566621384029,157.066787220334,NaN
1,10,3,SyncDelta,25,1094_1.7Hz.avi,ep15_zero_1.7Hz.wav,ep,2,5.00028419999944,0,1,99,6,25,65,3,2,4,5.21763532666667,NaN,4544.9804075,1,NaN,NaN,NaN,2.70274375355082,708.355224044802,291.574696939462,NaN
1,11,3,SyncDelta,51,1331_1.7Hz.avi,synth47_zero_1.7Hz.wav,synth,3,6.32970560000012,0,1,95,8,70,51,4,8,2,5.21763532666667,NaN,4552.8971384,1,NaN,NaN,NaN,1.5787829929823,413.77921204807,260.462737312623,NaN
1,12,3,SyncDelta,99,1173_1.7Hz.avi,ep6_zero_1.7Hz.wav,ep,3,4.39654979999978,0,1,99,65,25,6,1,4,5,5.21763532666667,NaN,4561.3638216,1,NaN,NaN,NaN,1.13126680403026,296.490834312546,255.137179769816,NaN
1,13,3,SyncDelta,55,1044_1.7Hz.avi,willow4_zero_1.7Hz.wav,willow,4,8.58323430000019,0,1,92,55,18,32,2,3,3,5.21763532666667,NaN,4568.9138501,1,NaN,NaN,NaN,1.75783301016183,460.705974848945,244.281229323699,NaN
1,14,3,SyncDelta,8,1252_1.7Hz.avi,synth25_zero_1.7Hz.wav,synth,2,8.07816120000007,0,1,70,51,8,95,3,14,3,5.21763532666667,NaN,4580.1805538,1,NaN,NaN,NaN,0.969510571034069,254.09655534543,351.191656392325,NaN
1,15,3,SyncDelta,46,1210_1.7Hz.avi,guitar48_zero_1.7Hz.wav,guitar,4,5.14628689999972,0,1,67,46,84,3,2,11,1,5.21763532666667,NaN,4591.3306161,1,NaN,NaN,NaN,1.52649389644488,400.074895964015,225.273000381928,NaN
1,16,3,SyncDelta,92,1030_1.7Hz.avi,willow23_zero_1.7Hz.wav,willow,1,9.76829780000025,0,1,32,92,55,18,2,15,2,5.21763532666667,NaN,4599.3639285,1,NaN,NaN,NaN,0.765432025681916,200.610129366,218.774680098866,NaN
1,1,4,AsyncTheta,160,1421_4Hz.avi,choir13_oneeighty_4Hz.wav,choir,3,5.76918479999949,0,1,160,76,97,124,1,10,2,4.96778477833333,NaN,4767.5145068,1,NaN,NaN,NaN,0.0633953748072294,16.6151322580921,145.918908479784,0.560791143013408
1,2,4,AsyncTheta,104,1111_4Hz.avi,acoustic31_oneeighty_4Hz.wav,acoustic,4,5.03130169999986,1,1,169,79,113,104,4,11,4,4.96778477833333,NaN,4775.7312075,1,NaN,NaN,NaN,0.998908740516378,261.801446681425,283.189616977704,1.9343327586333
1,3,4,AsyncTheta,97,1368_4Hz.avi,choir30_oneeighty_4Hz.wav,choir,2,6.28812509999989,1,1,160,97,124,76,2,9,4,4.96778477833333,NaN,4782.8812276,1,NaN,NaN,NaN,1.07873848784655,282.723821760903,243.413749076486,-1.80463276162216
1,4,4,AsyncTheta,110,1443_4Hz.avi,orch3_oneeighty_4Hz.wav,orch,3,6.4361429999999,1,1,174,141,110,145,3,12,3,4.96778477833333,NaN,4791.8146268,1,NaN,NaN,NaN,0.932394758215875,244.368966531324,254.39908080259,-1.85581309625056
1,5,4,AsyncTheta,136,1175_4Hz.avi,dar4_oneeighty_4Hz.wav,dar,1,6.99787699999979,1,1,136,162,82,116,1,2,5,4.96778477833333,NaN,4800.9146239,1,NaN,NaN,NaN,1.25926466110411,330.037466547171,411.606375720684,-2.37159798971095
1,6,4,AsyncTheta,145,1352_4Hz.avi,orch39_oneeighty_4Hz.wav,orch,2,4.99906090000059,0,1,145,174,141,110,1,7,4,4.96778477833333,NaN,4810.2146581,1,NaN,NaN,NaN,1.44083489362335,377.624746165174,243.184824854833,-2.16106641424989
1,7,4,AsyncTheta,79,1071_4Hz.avi,acoustic17_oneeighty_4Hz.wav,acoustic,3,8.11184720000074,1,1,113,169,79,104,3,13,4,4.96778477833333,NaN,4818.131374,1,NaN,NaN,NaN,0.549743188361225,144.080791546411,372.740835374289,1.42601184074323
1,8,4,AsyncTheta,162,1358_4Hz.avi,dar7_oneeighty_4Hz.wav,dar,1,4.14492950000022,1,1,162,116,136,82,1,8,5,4.96778477833333,NaN,4829.0814105,1,NaN,NaN,NaN,1.78423011169914,467.62432393366,400.324147303692,-2.87584647332385
1,9,4,AsyncTheta,124,1183_4Hz.avi,choir24_oneeighty_4Hz.wav,choir,4,10.0129635000003,0,1,160,76,124,97,3,6,2,4.96778477833333,NaN,4835.2647618,1,NaN,NaN,NaN,2.46112809925598,645.030792823418,753.202007294263,-2.43985456346276
1,10,4,AsyncTheta,113,1037_4Hz.avi,acoustic23_oneeighty_4Hz.wav,acoustic,2,4.57975979999992,1,1,79,113,169,104,2,1,5,4.96778477833333,NaN,4847.8647529,1,NaN,NaN,NaN,0.476830367922682,124.971256212316,366.061750915739,2.12084073486656
1,11,4,AsyncTheta,116,1420_4Hz.avi,dar18_oneeighty_4Hz.wav,dar,4,5.54303900000014,1,1,162,136,82,116,4,5,3,4.96778477833333,NaN,4855.1814691,1,NaN,NaN,NaN,0.509991444106556,133.662358178211,123.303415991802,0.447155196678452
1,12,4,AsyncTheta,169,1083_4Hz.avi,acoustic43_oneeighty_4Hz.wav,acoustic,3,5.93443139999999,0,1,113,104,79,169,4,3,3,4.96778477833333,NaN,4863.4314949,1,NaN,NaN,NaN,3.92472533627396,1028.62126357269,625.841100537019,2.19866870285081
1,13,4,AsyncTheta,174,1119_4Hz.avi,orch45_oneeighty_4Hz.wav,orch,3,11.1619516999999,1,1,141,145,174,110,3,4,1,4.96778477833333,NaN,4872.1982052,1,NaN,NaN,NaN,3.28436543651879,860.790969019449,764.502380796661,1.07077194216923
1,14,4,AsyncTheta,82,1449_4Hz.avi,dar17_oneeighty_4Hz.wav,dar,1,5.6359708,1,1,82,116,136,162,1,14,3,4.96778477833333,NaN,4886.0482137,1,NaN,NaN,NaN,0.715782257301894,187.597548073972,163.211290331864,1.80814271321281
1,15,4,AsyncTheta,76,1293_4Hz.avi,choir23_oneeighty_4Hz.wav,choir,4,3.53784340000038,1,1,160,124,97,76,4,15,2,4.96778477833333,NaN,4893.5649594,1,NaN,NaN,NaN,1.09614401383879,287.285591720651,257.538084667547,-2.59747736657663
1,16,4,AsyncTheta,141,1401_4Hz.avi,orch12_oneeighty_4Hz.wav,orch,1,8.08630139999968,1,1,141,174,145,110,1,16,3,4.96778477833333,NaN,4899.2316429,1,NaN,NaN,NaN,1.65380987765294,433.442817090329,334.510438782551,-1.63896216331432
1,1,5,NoFlicker,183,1374_half_amp.avi,guitar16_half_amp.wav,guitar,4,7.78494140000021,0,1,115,161,183,170,3,14,2,5.67918124,NaN,5185.8824938,2,NaN,NaN,NaN,0.0541368594107813,14.188591547617,196.474258147221,NaN
1,2,5,NoFlicker,173,1348_half_amp.avi,ep31_half_amp.wav,ep,2,4.78708730000017,0,1,173,123,144,180,1,11,2,5.67918124,NaN,5195.2491638,2,NaN,NaN,NaN,0.124735467096024,32.6916007575837,172.864209134187,NaN
1,3,5,NoFlicker,161,1433_half_amp.avi,guitar2_half_amp.wav,guitar,3,4.63163420000001,0,1,161,115,170,183,1,10,4,5.67918124,NaN,5202.5158861,2,NaN,NaN,NaN,1.37995428271023,361.668701968718,246.657362392542,NaN
1,4,5,NoFlicker,119,1189_half_amp.avi,willow11_half_amp.wav,willow,3,3.5255932,1,1,156,149,119,171,3,8,4,5.67918124,NaN,5209.4658746,2,NaN,NaN,NaN,0.0100441877874546,2.63245558561854,232.955952585512,NaN
1,5,5,NoFlicker,125,1050_half_amp.avi,synth36_half_amp.wav,synth,3,6.14247049999994,0,1,129,184,140,125,4,4,2,5.67918124,NaN,5215.932615,2,NaN,NaN,NaN,1.44059187536721,377.561054129608,286.239402318918,NaN
1,6,5,NoFlicker,156,1060_half_amp.avi,willow7_half_amp.wav,willow,3,5.35938460000034,1,1,119,171,156,149,3,6,4,5.67918124,NaN,5223.5159478,2,NaN,NaN,NaN,0.891903076063735,233.756604724864,301.410049783145,NaN
1,7,5,NoFlicker,180,1006_half_amp.avi,ep4_half_amp.wav,ep,4,3.87571170000047,1,1,123,144,173,180,4,16,3,5.67918124,NaN,5231.9992819,2,NaN,NaN,NaN,0.406192026654643,106.457833328872,268.885726368832,NaN
1,8,5,NoFlicker,184,1052_half_amp.avi,synth40_half_amp.wav,synth,2,4.94122489999972,0,1,140,125,129,184,4,12,2,5.67918124,NaN,5237.8492978,2,NaN,NaN,NaN,0.314376801593267,82.394214928633,242.622726771767,NaN
1,9,5,NoFlicker,170,1062_half_amp.avi,guitar3_half_amp.wav,guitar,1,10.4793176000003,0,1,115,183,170,161,3,7,4,5.67918124,NaN,5246.0827141,2,NaN,NaN,NaN,0.488384518207625,127.999454021667,219.349401952494,NaN
1,10,5,NoFlicker,123,1067_half_amp.avi,ep37_half_amp.wav,ep,3,7.54946999999993,0,1,144,180,173,123,4,2,5,5.67918124,NaN,5258.2160848,2,NaN,NaN,NaN,0.528067793924682,138.399942645295,251.880933396649,NaN
1,11,5,NoFlicker,140,1270_half_amp.avi,synth17_half_amp.wav,synth,4,9.87943220000034,0,1,184,125,140,129,3,5,3,5.67918124,NaN,5267.3660807,2,NaN,NaN,NaN,0.539627304607219,141.429545347593,258.315401103488,NaN
1,12,5,NoFlicker,144,1255_half_amp.avi,ep28_half_amp.wav,ep,1,6.41984390000016,1,1,144,180,123,173,1,3,2,5.67918124,NaN,5279.4994378,2,NaN,NaN,NaN,0.301507334599614,79.0212891143936,238.186715044151,NaN
1,13,5,NoFlicker,171,1280_half_amp.avi,willow19_half_amp.wav,willow,3,7.12540630000058,1,1,156,149,171,119,3,1,3,5.67918124,NaN,5287.6494611,2,NaN,NaN,NaN,0.973997201304834,255.272444841605,238.308918726879,NaN
1,14,5,NoFlicker,129,1286_half_amp.avi,synth30_half_amp.wav,synth,2,7.47492359999978,1,1,140,129,184,125,2,13,1,5.67918124,NaN,5296.2495299,2,NaN,NaN,NaN,1.74057374745864,456.182538661958,349.574990378297,NaN
1,15,5,NoFlicker,115,1370_half_amp.avi,guitar9_half_amp.wav,guitar,2,7.4722912999996,1,1,170,115,161,183,2,15,1,5.67918124,NaN,5306.099522,2,NaN,NaN,NaN,0.113528452077261,29.7543827456803,227.832953136454,NaN
1,16,5,NoFlicker,149,1200_half_amp.avi,willow8_half_amp.wav,willow,4,6.20220169999993,1,1,119,171,156,149,4,9,4,5.67918124,NaN,5315.0829196,2,NaN,NaN,NaN,0.382757543416498,100.315949325728,132.563434454514,NaN
1,1,6,SyncDelta,90,1273_1.7Hz.avi,guitar23_zero_1.7Hz.wav,guitar,1,7.40802359999998,1,1,90,53,7,73,1,7,3,4.646675235,NaN,5483.7834737,2,NaN,NaN,NaN,0.45270614376587,118.648599769191,267.358690428694,NaN
1,2,6,SyncDelta,26,1190_1.7Hz.avi,ep7_zero_1.7Hz.wav,ep,1,5.7905297999996,0,1,101,26,16,86,2,15,4,4.646675235,NaN,5493.6168398,2,NaN,NaN,NaN,0.527756780759118,138.318429997163,86.3198167060515,NaN
1,3,6,SyncDelta,7,1017_1.7Hz.avi,guitar47_zero_1.7Hz.wav,guitar,2,5.44604890000028,0,1,53,90,7,73,3,5,2,4.646675235,NaN,5501.4668647,2,NaN,NaN,NaN,1.06549294941411,279.252332341463,257.66755358822,NaN
1,4,6,SyncDelta,22,1212_1.7Hz.avi,willow20_zero_1.7Hz.wav,willow,1,4.6938070999995,0,1,66,22,94,37,2,10,3,4.646675235,NaN,5508.6002028,2,NaN,NaN,NaN,2.45647982619814,643.812538781028,372.280029465864,NaN
1,5,6,SyncDelta,54,1181_1.7Hz.avi,synth12_zero_1.7Hz.wav,synth,3,3.67648989999998,0,1,100,54,71,35,2,2,3,4.646675235,NaN,5516.4335576,2,NaN,NaN,NaN,1.16751103655565,305.989992868411,339.935189025301,NaN
1,6,6,SyncDelta,37,1237_1.7Hz.avi,willow15_zero_1.7Hz.wav,willow,4,5.30615680000028,0,1,22,66,37,94,3,6,2,4.646675235,NaN,5521.5169411,2,NaN,NaN,NaN,0.0817104153211856,21.415274561486,247.75477167538,NaN
1,7,6,SyncDelta,86,1278_1.7Hz.avi,ep35_zero_1.7Hz.wav,ep,3,3.82489339999938,1,1,101,16,86,26,3,16,3,4.646675235,NaN,5529.5336076,2,NaN,NaN,NaN,0.522301601216346,136.888695890055,198.490321672583,NaN
1,8,6,SyncDelta,100,1107_1.7Hz.avi,synth23_zero_1.7Hz.wav,synth,1,4.7337376000005,0,1,71,35,54,100,4,11,1,4.646675235,NaN,5534.9336735,2,NaN,NaN,NaN,0.296295430117248,77.6553143480264,256.445746942141,NaN
1,9,6,SyncDelta,73,1369_1.7Hz.avi,guitar19_zero_1.7Hz.wav,guitar,2,7.26869270000043,1,1,53,73,7,90,2,4,2,4.646675235,NaN,5541.8003124,2,NaN,NaN,NaN,1.08527424539258,284.436761803677,274.735695172007,NaN
1,10,6,SyncDelta,101,1295_1.7Hz.avi,ep40_zero_1.7Hz.wav,ep,3,5.41287140000077,1,1,16,26,101,86,3,1,3,4.646675235,NaN,5551.9170368,2,NaN,NaN,NaN,0.743292350760443,194.80759837553,302.806756105651,NaN
1,11,6,SyncDelta,35,1039_1.7Hz.avi,synth5_zero_1.7Hz.wav,synth,4,5.89968349999981,0,1,35,54,71,100,1,9,2,4.646675235,NaN,5559.0504036,2,NaN,NaN,NaN,0.891456389978366,233.639533906861,282.336316134526,NaN
1,12,6,SyncDelta,16,1442_1.7Hz.avi,ep34_zero_1.7Hz.wav,ep,4,4.14481410000008,1,1,86,101,26,16,4,8,4,4.646675235,NaN,5567.4504588,2,NaN,NaN,NaN,1.19458964937253,313.086957507962,338.406601461583,NaN
1,13,6,SyncDelta,94,1109_1.7Hz.avi,willow6_zero_1.7Hz.wav,willow,3,4.42543529999966,1,1,22,37,94,66,3,3,1,4.646675235,NaN,5573.8337793,2,NaN,NaN,NaN,0.528439688797676,138.497411625006,254.608457923405,NaN
1,14,6,SyncDelta,71,1076_1.7Hz.avi,synth21_zero_1.7Hz.wav,synth,2,4.83639289999974,0,1,35,100,54,71,4,13,1,4.646675235,NaN,5581.5171135,2,NaN,NaN,NaN,0.680100563788803,178.245823934546,221.310507313098,NaN
1,15,6,SyncDelta,53,1197_1.7Hz.avi,guitar46_zero_1.7Hz.wav,guitar,2,5.82976300000064,1,1,73,53,90,7,2,14,2,4.646675235,NaN,5587.8004862,2,NaN,NaN,NaN,0.748854573115508,196.265387060577,287.309079976026,NaN
1,16,6,SyncDelta,66,1215_1.7Hz.avi,willow18_zero_1.7Hz.wav,willow,1,4.06934139999976,1,1,66,22,94,37,1,12,2,4.646675235,NaN,5596.1005452,2,NaN,NaN,NaN,4.09903955326343,1074.30683256811,411.774884791241,NaN
1,1,7,AsyncTheta,139,1192_4Hz.avi,choir5_oneeighty_4Hz.wav,choir,3,5.99027359999945,1,1,98,78,139,181,3,13,1,4.478685645,NaN,5752.284381,2,NaN,NaN,NaN,1.47133682126301,385.618918664362,229.115953763139,-0.809251746122377
1,2,7,AsyncTheta,133,1341_4Hz.avi,acoustic14_oneeighty_4Hz.wav,acoustic,2,6.64282510000066,1,1,83,133,175,105,2,12,4,4.478685645,NaN,5761.3344302,2,NaN,NaN,NaN,0.174977946105596,45.8595240683434,286.497723155849,2.4675794409057
1,3,7,AsyncTheta,98,1014_4Hz.avi,choir41_oneeighty_4Hz.wav,choir,4,6.80521069999941,0,1,78,98,139,181,2,8,3,4.478685645,NaN,5770.8677402,2,NaN,NaN,NaN,0.895270312942665,234.639115259077,463.141404073084,-3.01767981017519
1,4,7,AsyncTheta,142,1155_4Hz.avi,orch9_oneeighty_4Hz.wav,orch,4,4.54764700000032,1,1,134,158,188,142,4,9,1,4.478685645,NaN,5779.1011633,2,NaN,NaN,NaN,2.03398358655906,533.081575812584,419.47685980734,2.80650302610397
1,5,7,AsyncTheta,147,1304_4Hz.avi,dar10_oneeighty_4Hz.wav,dar,1,6.04727359999924,0,1,187,122,147,103,3,4,2,4.478685645,NaN,5786.5844893,2,NaN,NaN,NaN,1.01739491870953,266.646442023117,295.463214347847,-1.37878933270388
1,6,7,AsyncTheta,134,1026_4Hz.avi,orch16_oneeighty_4Hz.wav,orch,3,8.13477560000047,0,1,142,134,158,188,2,5,2,4.478685645,NaN,5795.1511788,2,NaN,NaN,NaN,1.70858703210607,447.799221934186,256.485107615437,2.9239569845555
1,7,7,AsyncTheta,175,1103_4Hz.avi,acoustic10_oneeighty_4Hz.wav,acoustic,4,3.74166820000028,0,1,83,133,175,105,3,14,3,4.478685645,NaN,5804.8012803,2,NaN,NaN,NaN,1.25043164491152,327.722443838904,429.804786937067,-1.60241429735909
1,8,7,AsyncTheta,122,1289_4Hz.avi,dar3_oneeighty_4Hz.wav,dar,3,4.37478100000044,0,1,187,122,103,147,2,7,2,4.478685645,NaN,5811.2345858,2,NaN,NaN,NaN,0.524359377201933,137.428013155108,238.49734151399,0.766319743864944
1,9,7,AsyncTheta,181,1168_4Hz.avi,choir1_oneeighty_4Hz.wav,choir,3,3.6257671000003,1,1,78,98,181,139,3,3,4,4.478685645,NaN,5818.1512721,2,NaN,NaN,NaN,1.24649858285437,326.691637625399,271.726244795868,-1.83890892159633
1,10,7,AsyncTheta,105,1003_4Hz.avi,acoustic6_oneeighty_4Hz.wav,acoustic,3,4.06548339999972,0,1,105,133,83,175,1,2,3,4.478685645,NaN,5823.1679599,2,NaN,NaN,NaN,2.2042487893577,577.705948995211,539.849433743892,-2.38358251933419
1,11,7,AsyncTheta,187,1164_4Hz.avi,dar12_oneeighty_4Hz.wav,dar,4,3.48630499999945,1,1,147,122,103,187,4,6,1,4.478685645,NaN,5828.9679924,2,NaN,NaN,NaN,1.52885421665885,400.693506275031,466.236508340998,-1.72524225023024
1,12,7,AsyncTheta,83,1139_4Hz.avi,acoustic27_oneeighty_4Hz.wav,acoustic,2,5.00527869999951,0,1,105,133,83,175,3,11,4,4.478685645,NaN,5834.901316,2,NaN,NaN,NaN,1.55236617338455,406.855695107133,229.820932392217,-0.830052225799342
1,13,7,AsyncTheta,158,1206_4Hz.avi,orch6_oneeighty_4Hz.wav,orch,1,3.79796480000005,0,1,134,142,158,188,3,1,3,4.478685645,NaN,5843.1013432,2,NaN,NaN,NaN,1.56406045160445,409.920618689926,143.865988571153,-0.0355620927489239
1,14,7,AsyncTheta,103,1084_4Hz.avi,dar20_oneeighty_4Hz.wav,dar,4,5.56519839999964,0,1,187,103,147,122,2,16,3,4.478685645,NaN,5849.3513824,2,NaN,NaN,NaN,6.10835582842809,1600.9234155872,520.925007020169,-2.95348386974161
1,15,7,AsyncTheta,78,1301_4Hz.avi,choir11_oneeighty_4Hz.wav,choir,3,4.44546620000074,0,1,181,98,139,78,4,15,3,4.478685645,NaN,5857.9014204,2,NaN,NaN,NaN,2.35464729018634,617.12350887691,319.786235804424,2.11272436155565
1,16,7,AsyncTheta,188,1036_4Hz.avi,orch26_oneeighty_4Hz.wav,orch,1,5.23813440000049,0,1,134,142,188,158,3,10,4,4.478685645,NaN,5863.7514106,2,NaN,NaN,NaN,0.985482683007425,258.282645477168,280.472859844235,2.57033694730677
1,1,8,SyncTheta,19,1247_4Hz.avi,choir38_zero_4Hz.wav,choir,4,8.25158170000032,0,1,62,19,11,69,2,10,3,4.52679108,NaN,6022.9019228,2,NaN,NaN,NaN,2.73126862492831,715.831234905581,234.828526353266,1.48287710531838
1,2,8,SyncTheta,4,1167_4Hz.avi,acoustic37_zero_4Hz.wav,acoustic,3,5.76489840000067,1,1,58,20,4,39,3,5,4,4.52679108,NaN,6032.9019782,2,NaN,NaN,NaN,0.900265217900047,235.948217172834,205.923958074662,-1.35505903736425
1,3,8,SyncTheta,11,1448_4Hz.avi,choir36_zero_4Hz.wav,choir,4,5.02081080000062,1,1,19,69,62,11,4,6,3,4.52679108,NaN,6040.0520073,2,NaN,NaN,NaN,1.1048461182528,289.56630409442,281.21757821733,-0.718155562996656
1,4,8,SyncTheta,91,1340_4Hz.avi,orch46_zero_4Hz.wav,orch,2,6.71710059999987,1,1,28,91,74,36,2,14,1,4.52679108,NaN,6046.5020486,2,NaN,NaN,NaN,0.761197358213308,199.500276158666,352.47127435503,1.73703418557396
1,5,8,SyncTheta,14,1416_4Hz.avi,dar1_zero_4Hz.wav,dar,4,3.84400959999948,0,1,14,34,45,64,1,8,1,4.52679108,NaN,6055.4020866,2,NaN,NaN,NaN,2.14149503943268,561.258978567701,322.02886858162,-1.97812441454338
1,6,8,SyncTheta,74,1337_4Hz.avi,orch24_zero_4Hz.wav,orch,2,4.24791310000001,0,1,74,36,91,28,1,12,2,4.52679108,NaN,6062.5854165,2,NaN,NaN,NaN,1.19870881664733,314.166539563786,396.986062810465,-1.88473970273054
1,7,8,SyncTheta,39,1061_4Hz.avi,acoustic11_zero_4Hz.wav,acoustic,3,4.25012190000052,0,1,4,20,58,39,4,7,3,4.52679108,NaN,6068.7687387,2,NaN,NaN,NaN,1.35632102346897,355.47472126938,311.333254555165,2.50210814229274
1,8,8,SyncTheta,45,1203_4Hz.avi,dar2_zero_4Hz.wav,dar,4,4.61906650000037,0,1,64,14,45,34,3,11,3,4.52679108,NaN,6074.8354572,2,NaN,NaN,NaN,1.81746539119296,476.334873655995,262.035443919936,-2.15079115733778
1,9,8,SyncTheta,62,1058_4Hz.avi,choir19_zero_4Hz.wav,choir,4,4.59694820000004,1,1,11,69,19,62,4,3,3,4.52679108,NaN,6081.9521421,2,NaN,NaN,NaN,1.24720998863499,326.878088153851,242.496965604458,2.10171455707261
1,10,8,SyncTheta,20,1236_4Hz.avi,acoustic25_zero_4Hz.wav,acoustic,2,4.58001559999957,0,1,39,58,20,4,3,1,4,4.52679108,NaN,6089.4355068,2,NaN,NaN,NaN,2.1690217296356,568.473378667705,377.172447033827,-1.61015976777864
1,11,8,SyncTheta,34,1319_4Hz.avi,dar22_zero_4Hz.wav,dar,1,6.4001244000001,0,1,64,14,45,34,4,9,3,4.52679108,NaN,6096.0355326,2,NaN,NaN,NaN,1.33979005612716,351.142162158031,368.180676911137,1.62322185652893
1,12,8,SyncTheta,58,1323_4Hz.avi,acoustic29_zero_4Hz.wav,acoustic,4,5.53969899999993,0,1,4,58,20,39,2,4,4,4.52679108,NaN,6104.3188647,2,NaN,NaN,NaN,1.23375425957299,323.351510407855,324.858223368338,-2.25064776306514
1,13,8,SyncTheta,36,1284_4Hz.avi,orch29_zero_4Hz.wav,orch,4,7.78446239999994,1,1,91,28,74,36,4,2,2,4.52679108,NaN,6111.6855788,2,NaN,NaN,NaN,0.525839649582919,137.815973971853,229.899955212252,-3.02069564233928
1,14,8,SyncTheta,64,1098_4Hz.avi,dar11_zero_4Hz.wav,dar,2,3.38534619999973,1,1,34,64,14,45,2,16,2,4.52679108,NaN,6122.0189237,2,NaN,NaN,NaN,1.2004107570059,314.612596775989,289.361094858932,-1.62612959911224
1,15,8,SyncTheta,69,1216_4Hz.avi,choir32_zero_4Hz.wav,choir,1,5.5793819999999,0,1,19,11,62,69,4,13,2,4.52679108,NaN,6128.1356336,2,NaN,NaN,NaN,0.920759870640305,241.319608491184,346.127810523485,-1.63427174201636
1,16,8,SyncTheta,28,1148_4Hz.avi,orch19_zero_4Hz.wav,orch,4,3.81451910000033,1,1,74,91,36,28,4,15,1,4.52679108,NaN,6136.9356664,2,NaN,NaN,NaN,1.97950160332287,518.802531640907,262.470815742803,-1.28612977049021
1,1,9,SyncTheta,12,1077_4Hz.avi,choir18_zero_4Hz.wav,choir,2,3.98619899999994,1,1,72,12,63,38,2,7,3,4.918765175,18.68793092,6457.170025,3,NaN,NaN,NaN,0.510380068707779,133.764211809768,143.706786354256,2.65907283855781
1,2,9,SyncTheta,44,1254_4Hz.avi,acoustic48_zero_4Hz.wav,acoustic,3,5.43184199999996,1,1,60,5,44,21,3,9,2,4.918765175,18.68793092,6463.0367106,3,NaN,NaN,NaN,1.0696436796702,280.340186658632,283.042468606779,-2.38884983596139
1,3,9,SyncTheta,38,1184_4Hz.avi,choir33_zero_4Hz.wav,choir,2,7.40370329999951,0,1,12,72,38,63,3,6,1,4.918765175,18.68793092,6471.0534047,3,NaN,NaN,NaN,1.8960056380144,496.919286832659,461.806765654499,-2.89602239101254
1,4,9,SyncTheta,102,1012_4Hz.avi,orch18_zero_4Hz.wav,orch,1,4.50427089999994,1,1,102,81,30,42,1,11,2,4.918765175,18.68793092,6480.7701025,3,NaN,NaN,NaN,1.00451071159922,263.26965300926,226.756742587315,2.87125764701694
1,5,9,SyncTheta,49,1221_4Hz.avi,dar21_zero_4Hz.wav,dar,3,3.27807979999943,0,1,49,29,40,80,1,2,2,4.918765175,18.68793092,6488.0701237,3,NaN,NaN,NaN,0.922537477087018,241.785496835637,460.463179035378,-0.335137270615435
1,6,9,SyncTheta,81,1444_4Hz.avi,orch4_zero_4Hz.wav,orch,3,6.00584439999966,0,1,81,30,42,102,1,8,2,4.918765175,18.68793092,6492.7701428,3,NaN,NaN,NaN,0.489283621113077,128.235097611331,188.135401621358,-2.70885458237438
1,7,9,SyncTheta,60,1249_4Hz.avi,acoustic20_zero_4Hz.wav,acoustic,2,4.53440099999989,0,1,21,5,60,44,3,12,3,4.918765175,18.68793092,6500.7701751,3,NaN,NaN,NaN,2.01914647530677,529.192955127961,355.048099181162,0.396023738468418
1,8,9,SyncTheta,29,1158_4Hz.avi,dar23_zero_4Hz.wav,dar,3,6.4750185999992,0,1,40,29,49,80,2,13,3,4.918765175,18.68793092,6507.6701607,3,NaN,NaN,NaN,0.832710918011382,218.243082836678,270.401530931785,-2.8689534046763
1,9,9,SyncTheta,72,1097_4Hz.avi,choir29_zero_4Hz.wav,choir,2,4.22670040000048,1,1,12,72,63,38,2,5,3,4.918765175,18.68793092,6515.6701893,3,NaN,NaN,NaN,16.7569590591747,4391.78870474747,760.468601839096,2.2224381169506
1,10,9,SyncTheta,5,1381_4Hz.avi,acoustic1_zero_4Hz.wav,acoustic,3,5.53539860000001,0,1,21,44,60,5,4,1,2,4.918765175,18.68793092,6521.6868738,3,NaN,NaN,NaN,1.37774475621473,361.089612799169,326.801195408683,-0.55613114660244
1,11,9,SyncTheta,80,1082_4Hz.avi,dar15_zero_4Hz.wav,dar,1,3.75878019999982,0,1,40,29,49,80,4,10,1,4.918765175,18.68793092,6530.5702578,3,NaN,NaN,NaN,0.242456420048043,63.5447853754526,353.743970880063,1.19993436454943
1,12,9,SyncTheta,21,1112_4Hz.avi,acoustic32_zero_4Hz.wav,acoustic,2,3.5905358,1,1,5,21,44,60,2,4,3,4.918765175,18.68793092,6536.2536143,3,NaN,NaN,NaN,2.94296689124666,771.314694138747,468.614310242065,-2.75199832598692
1,13,9,SyncTheta,42,1339_4Hz.avi,orch31_zero_4Hz.wav,orch,4,9.77193319999969,0,1,81,30,42,102,3,3,1,4.918765175,18.68793092,6541.9036328,3,NaN,NaN,NaN,0.0223181450803398,5.84930577968356,212.863668956678,-1.64731662865837
1,14,9,SyncTheta,40,1239_4Hz.avi,dar6_zero_4Hz.wav,dar,3,3.28601239999989,1,1,29,49,40,80,3,16,2,4.918765175,18.68793092,6554.0370011,3,NaN,NaN,NaN,1.27319671820577,333.688883895443,387.915465920511,-2.4716588858483
1,15,9,SyncTheta,63,1128_4Hz.avi,choir26_zero_4Hz.wav,choir,1,4.15236039999945,1,1,63,38,72,12,1,14,2,4.918765175,18.68793092,6560.0036919,3,NaN,NaN,NaN,2.51473679074922,659.080958187246,431.312964164306,0.377421316865196
1,16,9,SyncTheta,30,1016_4Hz.avi,orch14_zero_4Hz.wav,orch,4,7.45506819999991,1,1,81,42,102,30,4,15,3,4.918765175,18.68793092,6567.3870619,3,NaN,NaN,NaN,2.62698309206088,688.499305305562,332.982241998359,-0.465026443388269
1,1,10,SyncDelta,59,1346_1.7Hz.avi,guitar33_zero_1.7Hz.wav,guitar,3,5.97527280000031,0,1,15,93,77,59,4,12,2,4.41931181,18.68793092,6731.9209235,3,NaN,NaN,NaN,0.0487457995702369,12.7756624098951,96.5743729602724,NaN
1,2,10,SyncDelta,106,1113_1.7Hz.avi,ep29_zero_1.7Hz.wav,ep,2,4.56035750000046,1,1,24,106,87,41,2,15,4,4.41931181,18.68793092,6740.7209482,3,NaN,NaN,NaN,0.430353991071336,112.790381020551,279.151861409396,NaN
1,3,10,SyncDelta,93,1046_1.7Hz.avi,guitar18_zero_1.7Hz.wav,guitar,4,4.14188430000013,0,1,93,15,77,59,1,5,2,4.41931181,18.68793092,6747.3876384,3,NaN,NaN,NaN,1.23774224148349,324.396710425796,394.033173454747,NaN
1,4,10,SyncDelta,75,1040_1.7Hz.avi,willow17_zero_1.7Hz.wav,willow,4,5.97895569999946,1,1,27,108,48,75,4,7,3,4.41931181,18.68793092,6754.1876915,3,NaN,NaN,NaN,0.524161578518144,137.376172602045,276.299812805168,NaN
1,5,10,SyncDelta,61,1207_1.7Hz.avi,synth46_zero_1.7Hz.wav,synth,2,5.25993519999975,0,1,61,89,50,109,1,6,2,4.41931181,18.68793092,6762.2876874,3,NaN,NaN,NaN,0.347044407350899,90.9559844878276,282.119437899219,NaN
1,6,10,SyncDelta,27,1202_1.7Hz.avi,willow16_zero_1.7Hz.wav,willow,3,5.1196616999996,0,1,27,48,108,75,1,2,2,4.41931181,18.68793092,6768.9710388,3,NaN,NaN,NaN,2.14827100304515,563.03487360641,277.366328618608,NaN
1,7,10,SyncDelta,41,1132_1.7Hz.avi,ep10_zero_1.7Hz.wav,ep,1,5.17057690000001,1,1,41,87,106,24,1,16,3,4.41931181,18.68793092,6777.2044029,3,NaN,NaN,NaN,0.0433615942160179,11.3645297470297,696.710396192512,NaN
1,8,10,SyncDelta,89,1393_1.7Hz.avi,synth41_zero_1.7Hz.wav,synth,1,5.59357269999964,0,1,109,61,89,50,3,11,2,4.41931181,18.68793092,6783.8044288,3,NaN,NaN,NaN,0.562693111724367,147.474803965535,311.066574479443,NaN
1,9,10,SyncDelta,15,1422_1.7Hz.avi,guitar37_zero_1.7Hz.wav,guitar,3,4.91503360000024,0,1,15,93,77,59,1,4,2,4.41931181,18.68793092,6790.887807,3,NaN,NaN,NaN,0.381920362231974,100.096534642131,259.902020027519,NaN
1,10,10,SyncDelta,87,1142_1.7Hz.avi,ep3_zero_1.7Hz.wav,ep,1,3.61350609999954,0,1,24,41,87,106,3,3,2,4.41931181,18.68793092,6797.8544836,3,NaN,NaN,NaN,1.61470283394165,423.193351644909,397.224690672682,NaN
1,11,10,SyncDelta,109,1299_1.7Hz.avi,synth18_zero_1.7Hz.wav,synth,1,3.34968939999999,1,1,109,50,89,61,1,8,4,4.41931181,18.68793092,6804.4211661,3,NaN,NaN,NaN,1.61879338929867,424.265434876101,278.371527336204,NaN
1,12,10,SyncDelta,24,1217_1.7Hz.avi,ep44_zero_1.7Hz.wav,ep,2,3.52358880000065,0,1,87,106,24,41,3,9,4,4.41931181,18.68793092,6809.6878142,3,NaN,NaN,NaN,2.59215511210955,679.37132877836,444.955283554784,NaN
1,13,10,SyncDelta,108,1415_1.7Hz.avi,willow3_zero_1.7Hz.wav,willow,3,4.57241280000017,1,1,75,48,108,27,3,1,2,4.41931181,18.68793092,6815.7545315,3,NaN,NaN,NaN,2.75994060993837,723.34580240349,520.041522443022,NaN
1,14,10,SyncDelta,50,1049_1.7Hz.avi,synth43_zero_1.7Hz.wav,synth,4,4.43024799999966,1,1,61,109,89,50,4,13,2,4.41931181,18.68793092,6823.571192,3,NaN,NaN,NaN,1.63187568106506,427.69413939277,276.680848062272,NaN
1,15,10,SyncDelta,77,1008_1.7Hz.avi,guitar42_zero_1.7Hz.wav,guitar,2,2.54979009999988,1,1,93,77,15,59,2,14,2,4.41931181,18.68793092,6830.8045527,3,NaN,NaN,NaN,3.59952625993605,943.390666230321,517.308501607514,NaN
1,16,10,SyncDelta,48,1021_1.7Hz.avi,willow12_zero_1.7Hz.wav,willow,1,4.58141009999963,0,1,108,75,27,48,4,10,3,4.41931181,18.68793092,6835.5712295,3,NaN,NaN,NaN,0.124367625448966,32.5951940775305,231.33208559121,NaN
1,1,11,NoFlicker,185,1131_half_amp.avi,guitar45_half_amp.wav,guitar,4,4.97194029999991,1,1,172,146,164,185,4,14,2,4.49961570333333,18.68793092,6998.3884393,3,NaN,NaN,NaN,0.515974356814138,135.230404525872,172.939400371553,NaN
1,2,11,NoFlicker,176,1405_half_amp.avi,ep46_half_amp.wav,ep,1,6.03933409999991,1,1,176,132,150,189,1,10,3,4.49961570333333,18.68793092,7006.2384928,3,NaN,NaN,NaN,0.0920153244949011,24.1160619509374,338.336804710743,NaN
1,3,11,NoFlicker,146,1005_half_amp.avi,guitar14_half_amp.wav,guitar,2,3.49628670000038,0,1,146,185,164,172,1,7,2,4.49961570333333,18.68793092,7015.2384919,3,NaN,NaN,NaN,0.217408593753729,56.9800644013557,201.388171056157,NaN
1,4,11,NoFlicker,152,1445_half_amp.avi,willow2_half_amp.wav,willow,1,4.36494149999999,0,1,178,157,120,152,4,5,2,4.49961570333333,18.68793092,7021.0385141,3,NaN,NaN,NaN,0.601105213285908,157.54213379357,189.480898758914,NaN
1,5,11,NoFlicker,155,1042_half_amp.avi,synth10_half_amp.wav,synth,1,4.62208259999989,1,1,155,127,131,186,1,6,3,4.49961570333333,18.68793092,7027.4552207,3,NaN,NaN,NaN,1.18958158030361,311.774405445755,330.927678749257,NaN
1,6,11,NoFlicker,178,1057_half_amp.avi,willow9_half_amp.wav,willow,3,5.07424809999975,1,1,157,120,178,152,3,2,3,4.49961570333333,18.68793092,7034.1052465,3,NaN,NaN,NaN,0.221405277433888,58.0275450439346,193.548831330294,NaN
1,7,11,NoFlicker,189,1051_half_amp.avi,ep14_half_amp.wav,ep,4,3.33043480000015,1,1,132,150,176,189,4,15,1,4.49961570333333,18.68793092,7041.0719029,3,NaN,NaN,NaN,0.454361188533508,119.082366235451,303.668417234287,NaN
1,8,11,NoFlicker,131,1366_half_amp.avi,synth34_half_amp.wav,synth,1,5.54876130000048,0,1,127,131,186,155,2,11,2,4.49961570333333,18.68793092,7047.1219844,3,NaN,NaN,NaN,4.03206344489422,1056.75323497411,412.738273399015,NaN
1,9,11,NoFlicker,164,1087_half_amp.avi,guitar17_half_amp.wav,guitar,1,5.39298719999988,0,1,172,146,164,185,3,4,2,4.49961570333333,18.68793092,7054.2719501,3,NaN,NaN,NaN,0.571279297322962,149.72513547232,292.373634269017,NaN
1,10,11,NoFlicker,150,1394_half_amp.avi,ep11_half_amp.wav,ep,4,3.43646290000015,0,1,189,150,176,132,2,3,1,4.49961570333333,18.68793092,7062.9386542,3,NaN,NaN,NaN,0.114300765097516,29.9567962973818,111.265655078481,NaN
1,11,11,NoFlicker,127,1411_half_amp.avi,synth28_half_amp.wav,synth,3,3.40170020000005,1,1,131,155,127,186,3,9,2,4.49961570333333,18.68793092,7068.0386648,3,NaN,NaN,NaN,0.653011572312098,171.146139178483,353.724779040522,NaN
1,12,11,NoFlicker,132,1356_half_amp.avi,ep30_half_amp.wav,ep,2,5.59596570000031,0,1,150,176,189,132,4,8,4,4.49961570333333,18.68793092,7073.5886854,3,NaN,NaN,NaN,0.692355274396596,181.457629813954,248.440563012638,NaN
1,13,11,NoFlicker,120,1365_half_amp.avi,willow21_half_amp.wav,willow,2,7.97363700000005,0,1,178,152,120,157,3,1,3,4.49961570333333,18.68793092,7080.8720672,3,NaN,NaN,NaN,1.06301448472126,278.602757844997,287.502673046329,NaN
1,14,11,NoFlicker,186,1031_half_amp.avi,synth7_half_amp.wav,synth,1,3.423495,0,1,131,127,155,186,4,12,2,4.49961570333333,18.68793092,7090.2887429,3,NaN,NaN,NaN,1.7899415419394,469.121218133172,315.646846646942,NaN
1,15,11,NoFlicker,172,1350_half_amp.avi,guitar10_half_amp.wav,guitar,1,7.59204109999973,0,1,146,164,185,172,4,16,1,4.49961570333333,18.68793092,7095.3887561,3,NaN,NaN,NaN,0.547628790634408,143.526634433465,169.25456637268,NaN
1,16,11,NoFlicker,157,1225_half_amp.avi,willow14_half_amp.wav,willow,4,4.37071060000017,1,1,120,178,152,157,4,13,2,4.49961570333333,18.68793092,7105.8888019,3,NaN,NaN,NaN,0.770500889407508,201.938614944878,368.2365089099,NaN
1,1,12,AsyncTheta,182,1277_4Hz.avi,choir39_oneeighty_4Hz.wav,choir,3,6.87616969999999,0,1,182,159,121,88,1,11,2,4.27768648833333,18.68793092,7255.7226237,3,NaN,NaN,NaN,0.616117135950854,161.476570355933,174.562722925239,-1.59772567704378
1,2,12,AsyncTheta,190,1427_4Hz.avi,acoustic46_oneeighty_4Hz.wav,acoustic,2,6.76755130000038,0,1,148,96,190,107,3,6,2,4.27768648833333,18.68793092,7264.3726736,3,NaN,NaN,NaN,0.521456570502466,136.667223943308,392.638333084871,0.4420728025007
1,3,12,AsyncTheta,159,1091_4Hz.avi,choir8_oneeighty_4Hz.wav,choir,2,4.88167670000075,1,1,121,159,88,182,2,9,2,4.27768648833333,18.68793092,7273.0227012,3,NaN,NaN,NaN,0.845847096667899,221.685910431082,255.770192763294,-1.14290381960075
1,4,12,AsyncTheta,143,1127_4Hz.avi,orch11_oneeighty_4Hz.wav,orch,1,3.34166860000005,0,1,192,165,137,143,4,15,2,4.27768648833333,18.68793092,7281.1227417,3,NaN,NaN,NaN,1.15383503521973,302.405684523375,390.216799755389,-0.548301875251702
1,5,12,AsyncTheta,191,1314_4Hz.avi,dar19_oneeighty_4Hz.wav,dar,1,3.38317599999937,1,1,191,154,114,126,1,2,2,4.27768648833333,18.68793092,7287.2727542,3,NaN,NaN,NaN,1.13604931871518,297.744271400943,545.64283835591,-2.83571761476295
1,6,12,AsyncTheta,137,1303_4Hz.avi,orch10_oneeighty_4Hz.wav,orch,4,5.79891640000005,1,1,143,165,192,137,4,12,4,4.27768648833333,18.68793092,7292.3227623,3,NaN,NaN,NaN,0.674910847864264,176.885664510766,208.756047516733,1.60298810179012
1,7,12,AsyncTheta,148,1121_4Hz.avi,acoustic26_oneeighty_4Hz.wav,acoustic,3,5.73278519999985,0,1,107,190,96,148,4,14,3,4.27768648833333,18.68793092,7301.2061255,3,NaN,NaN,NaN,0.329354617420327,86.3197125167561,92.0760806565168,2.96868049878319
1,8,12,AsyncTheta,114,1322_4Hz.avi,dar14_oneeighty_4Hz.wav,dar,4,4.74109849999968,0,1,126,191,114,154,3,8,2,4.27768648833333,18.68793092,7309.5394628,3,NaN,NaN,NaN,3.15686780070907,827.375438501423,381.437442463484,3.05718356669783
1,9,12,AsyncTheta,121,1354_4Hz.avi,choir22_oneeighty_4Hz.wav,choir,3,5.92676130000018,0,1,88,182,159,121,4,7,1,4.27768648833333,18.68793092,7317.422874,3,NaN,NaN,NaN,2.82968060434683,741.623779847408,221.695904294626,-0.168049939895071
1,10,12,AsyncTheta,107,1265_4Hz.avi,acoustic16_oneeighty_4Hz.wav,acoustic,1,3.44045050000022,0,1,148,190,96,107,4,1,1,4.27768648833333,18.68793092,7325.0728965,3,NaN,NaN,NaN,0.856589215992229,224.50128511494,310.578232417815,3.08781325354686
1,11,12,AsyncTheta,154,1074_4Hz.avi,dar5_oneeighty_4Hz.wav,dar,1,5.00127610000072,0,1,114,126,154,191,3,4,2,4.27768648833333,18.68793092,7330.7728934,3,NaN,NaN,NaN,6.95332812395807,1822.38005161695,795.324830536176,0.213352289505297
1,12,12,AsyncTheta,96,1027_4Hz.avi,acoustic40_oneeighty_4Hz.wav,acoustic,2,3.30166259999987,0,1,107,190,96,148,3,5,2,4.27768648833333,18.68793092,7337.8395595,3,NaN,NaN,NaN,3.1081877180237,814.616999662443,752.369584323552,1.51211524229392
1,13,12,AsyncTheta,192,1231_4Hz.avi,orch32_oneeighty_4Hz.wav,orch,1,5.88015950000045,0,1,137,192,165,143,2,3,2,4.27768648833333,18.68793092,7343.1896035,3,NaN,NaN,NaN,0.118463249107481,31.0477311259568,78.0082038318376,1.21509478625732
1,14,12,AsyncTheta,126,1298_4Hz.avi,dar9_oneeighty_4Hz.wav,dar,3,4.87200339999981,0,1,126,154,114,191,1,10,1,4.27768648833333,18.68793092,7350.6896508,3,NaN,NaN,NaN,2.82985928238086,741.670609118091,749.491038713963,3.11454342666145
1,15,12,AsyncTheta,88,1191_4Hz.avi,choir20_oneeighty_4Hz.wav,choir,3,3.90020950000053,0,1,88,182,121,159,1,13,1,4.27768648833333,18.68793092,7357.372979,3,NaN,NaN,NaN,1.21393217569751,318.156390949636,228.705716311227,-1.81884242730595
1,16,12,AsyncTheta,165,1410_4Hz.avi,orch43_oneeighty_4Hz.wav,orch,2,3.25916679999955,0,1,165,137,143,192,1,16,1,4.27768648833333,18.68793092,7363.8396837,3,NaN,NaN,NaN,0.117210458446747,30.7193904136713,341.635825252945,-0.467593139679452
2,1,1,NoFlicker,61,1207_half_amp.avi,synth46_half_amp.wav,synth,1,12.2206181000001,0,2,100,51,61,95,3,12,2,6.220576265,NaN,8645.7764794,1,NaN,NaN,NaN,0.694579513679596,253.256187814746,299.456822597496,NaN
2,2,1,NoFlicker,48,1021_half_amp.avi,willow12_half_amp.wav,willow,4,7.59411139999975,0,2,48,92,32,94,1,9,4,6.220576265,NaN,8660.0931672,1,NaN,NaN,NaN,1.66770782744317,608.076279891405,368.612187473088,NaN
2,3,1,NoFlicker,41,1132_half_amp.avi,ep10_half_amp.wav,ep,2,4.7202742999998,0,2,41,99,101,25,1,5,4,6.220576265,NaN,8669.1932198,1,NaN,NaN,NaN,1.00404306267634,366.092165759655,261.101004917002,NaN
2,4,1,NoFlicker,51,1331_half_amp.avi,synth47_half_amp.wav,synth,3,3.50690759999998,0,2,61,51,95,100,2,11,2,6.220576265,NaN,8676.559936,1,NaN,NaN,NaN,0.487725973833737,177.833665402843,222.790409310112,NaN
2,5,1,NoFlicker,90,1273_half_amp.avi,guitar23_half_amp.wav,guitar,2,9.80081080000127,0,2,46,59,90,84,3,4,2,6.220576265,NaN,8681.9433213,1,NaN,NaN,NaN,0.511860797769802,186.63365645246,266.066646229996,NaN
2,6,1,NoFlicker,59,1346_half_amp.avi,guitar33_half_amp.wav,guitar,4,5.68968389999827,0,2,84,59,90,46,2,10,4,6.220576265,NaN,8693.4932927,1,NaN,NaN,NaN,1.14558532178785,417.701020111505,285.078082811516,NaN
2,7,1,NoFlicker,84,1294_half_amp.avi,guitar6_half_amp.wav,guitar,3,9.18146750000051,0,2,59,84,46,90,2,1,4,6.220576265,NaN,8701.1266247,1,NaN,NaN,NaN,0.266092288408516,97.0220359829515,173.232078743282,NaN
2,8,1,NoFlicker,95,1359_half_amp.avi,synth33_half_amp.wav,synth,3,4.77849310000056,1,2,61,51,95,100,3,14,5,6.220576265,NaN,8712.2766464,1,NaN,NaN,NaN,0.203604319880258,74.2377983512975,845.38504820473,NaN
2,9,1,NoFlicker,32,1360_half_amp.avi,willow10_half_amp.wav,willow,1,6.53340620000017,0,2,94,92,32,48,3,7,1,6.220576265,NaN,8720.2433621,1,NaN,NaN,NaN,0.22558702472634,82.2530880589978,169.882011780079,NaN
2,10,1,NoFlicker,94,1109_half_amp.avi,willow6_half_amp.wav,willow,1,9.78670919999968,1,2,94,92,32,48,1,2,2,6.220576265,NaN,8729.0433844,1,NaN,NaN,NaN,0.742557569258067,270.749850117278,557.154810604451,NaN
2,11,1,NoFlicker,46,1210_half_amp.avi,guitar48_half_amp.wav,guitar,3,4.86863350000021,1,2,59,90,46,84,3,6,5,6.220576265,NaN,8740.6934163,1,NaN,NaN,NaN,0.190539803167121,69.4742404961527,257.341345824025,NaN
2,12,1,NoFlicker,92,1030_half_amp.avi,willow23_half_amp.wav,willow,4,7.42578870000034,0,2,32,92,94,48,2,16,5,6.220576265,NaN,8747.9434332,1,NaN,NaN,NaN,1.33417739690668,486.465083917017,361.89259902503,NaN
2,13,1,NoFlicker,100,1107_half_amp.avi,synth23_half_amp.wav,synth,3,4.98581100000047,1,2,61,95,100,51,3,8,5,6.220576265,NaN,8758.4934622,1,NaN,NaN,NaN,0.244925930706461,89.3044011319783,166.826410672713,NaN
2,14,1,NoFlicker,101,1295_half_amp.avi,ep40_half_amp.wav,ep,4,3.93337189999875,1,2,99,41,25,101,4,15,5,6.220576265,NaN,8766.3435007,1,NaN,NaN,NaN,0.384302389435041,140.123565696342,172.555581101049,NaN
2,15,1,NoFlicker,99,1173_half_amp.avi,ep6_half_amp.wav,ep,1,7.93776029999935,0,2,41,101,99,25,3,3,2,6.220576265,NaN,8772.2101673,1,NaN,NaN,NaN,1.2757504929761,465.161583505829,255.46316756856,NaN
2,16,1,NoFlicker,25,1094_half_amp.avi,ep15_half_amp.wav,ep,1,7.24409750000086,1,2,25,41,99,101,1,13,4,6.220576265,NaN,8781.9435641,1,NaN,NaN,NaN,0.185305788629931,67.5658246236007,275.550563850997,NaN
2,1,2,SyncTheta,163,1441_4Hz.avi,synth27_zero_4Hz.wav,synth,1,7.49405850000039,0,2,129,163,135,127,2,5,1,6.08071511833333,NaN,8992.7941366,1,NaN,NaN,NaN,1.26306695672025,460.536937980151,160.28800953481,-0.376339427022369
2,2,2,SyncTheta,149,1200_4Hz.avi,willow8_zero_4Hz.wav,willow,3,9.12210009999944,0,2,167,120,153,149,4,13,2,6.08071511833333,NaN,9002.1108299,1,NaN,NaN,NaN,1.15212754078074,420.086430866294,338.360099113,0.817002633906675
2,3,2,SyncTheta,132,1356_4Hz.avi,ep30_zero_4Hz.wav,ep,3,5.34871179999936,0,2,166,144,177,132,4,7,5,6.08071511833333,NaN,9012.6441675,1,NaN,NaN,NaN,1.21261578690124,442.141533728346,468.71476479186,1.44327046359449
2,4,2,SyncTheta,135,1154_4Hz.avi,synth38_zero_4Hz.wav,synth,4,8.08674539999993,1,2,129,163,127,135,4,4,4,6.08071511833333,NaN,9019.6108505,1,NaN,NaN,NaN,1.51856439069038,553.695899408392,476.188763687267,-0.327672892126751
2,5,2,SyncTheta,168,1204_4Hz.avi,guitar36_zero_4Hz.wav,guitar,3,7.00688639999862,0,2,161,146,179,168,4,10,4,6.08071511833333,NaN,9030.127554,1,NaN,NaN,NaN,1.7350576249779,632.633227854613,355.024571994142,-0.979189236682577
2,6,2,SyncTheta,179,1186_4Hz.avi,guitar30_zero_4Hz.wav,guitar,2,5.80672959999902,1,2,146,179,161,168,2,14,4,6.08071511833333,NaN,9040.3942755,1,NaN,NaN,NaN,1.81162673910671,660.551704525319,297.457312598393,0.114307916283508
2,7,2,SyncTheta,161,1433_4Hz.avi,guitar2_zero_4Hz.wav,guitar,1,6.10479729999861,0,2,168,161,179,146,2,2,4,6.08071511833333,NaN,9049.2942944,1,NaN,NaN,NaN,1.83158640979571,667.829359580181,673.397024963991,0.0788463248111125
2,8,2,SyncTheta,127,1411_4Hz.avi,synth28_zero_4Hz.wav,synth,4,10.5363579000004,0,2,163,127,129,135,2,15,1,6.08071511833333,NaN,9057.5609886,1,NaN,NaN,NaN,1.73303369420075,631.895266277965,500.983595238038,1.05306969110838
2,9,2,SyncTheta,167,1177_4Hz.avi,willow24_zero_4Hz.wav,willow,2,5.74832049999895,0,2,167,153,149,120,1,9,2,6.08071511833333,NaN,9069.877667,1,NaN,NaN,NaN,0.959315986153665,349.783868913665,403.882688468152,1.43398615460599
2,10,2,SyncTheta,153,1157_4Hz.avi,willow1_zero_4Hz.wav,willow,1,11.7418195999999,1,2,153,120,167,149,1,6,4,6.08071511833333,NaN,9078.2443807,1,NaN,NaN,NaN,1.34906774874873,491.894374111256,352.039593513334,-0.443586334896113
2,11,2,SyncTheta,146,1005_4Hz.avi,guitar14_zero_4Hz.wav,guitar,3,4.16909970000052,0,2,179,161,168,146,4,11,2,6.08071511833333,NaN,9092.2277639,1,NaN,NaN,NaN,1.3184786263258,480.741029705242,432.953400068415,-2.04084572344594
2,12,2,SyncTheta,120,1365_4Hz.avi,willow21_zero_4Hz.wav,willow,1,7.87981039999977,0,2,153,167,149,120,4,16,2,6.08071511833333,NaN,9099.261137,1,NaN,NaN,NaN,0.84049389956082,306.459198251727,388.045739434523,-1.61260573673454
2,13,2,SyncTheta,129,1286_4Hz.avi,synth30_zero_4Hz.wav,synth,2,6.43412790000002,1,2,135,129,127,163,2,1,5,6.08071511833333,NaN,9110.1611409,1,NaN,NaN,NaN,1.78963958043613,652.534790873072,491.483330616658,-0.0818552351471815
2,14,2,SyncTheta,144,1255_4Hz.avi,ep28_zero_4Hz.wav,ep,2,9.39235499999995,0,2,177,132,144,166,3,12,2,6.08071511833333,NaN,9118.3945253,1,NaN,NaN,NaN,0.867117064699685,316.166483275024,354.958745084142,-1.41411491606078
2,15,2,SyncTheta,166,1227_4Hz.avi,ep5_zero_4Hz.wav,ep,2,11.6326453000001,0,2,144,177,132,166,4,3,3,6.08071511833333,NaN,9130.5111997,1,NaN,NaN,NaN,1.18347811182076,431.51741313836,389.71005476991,1.42393736360461
2,16,2,SyncTheta,177,1283_4Hz.avi,ep38_zero_4Hz.wav,ep,4,9.96332509999957,1,2,144,132,166,177,4,8,4,6.08071511833333,NaN,9144.1612392,1,NaN,NaN,NaN,1.61271602871163,588.025280641448,325.198359292607,-2.00859731721313
2,1,3,AsyncTheta,34,1319_4Hz.avi,dar22_oneeighty_4Hz.wav,dar,3,9.99511069999971,1,2,43,49,34,40,3,12,5,5.51986688,NaN,9338.5284608,1,NaN,NaN,NaN,0.422882153961654,154.190441983897,368.849078809931,-0.628336687553293
2,2,3,AsyncTheta,81,1444_4Hz.avi,orch4_oneeighty_4Hz.wav,orch,2,10.6991665000005,0,2,81,57,36,42,1,9,5,5.51986688,NaN,9350.9118351,1,NaN,NaN,NaN,0.905630840270077,330.209298801843,548.685716709136,1.22549549487694
2,3,3,AsyncTheta,20,1236_4Hz.avi,acoustic25_oneeighty_4Hz.wav,acoustic,3,3.49024690000078,1,2,23,44,20,21,3,8,5,5.51986688,NaN,9363.9785333,1,NaN,NaN,NaN,1.38717817627213,505.790121682956,410.024838699913,-2.74370325325829
2,4,3,AsyncTheta,40,1239_4Hz.avi,dar6_oneeighty_4Hz.wav,dar,3,7.71142240000154,0,2,40,43,34,49,1,11,4,5.51986688,NaN,9369.2285184,1,NaN,NaN,NaN,1.62102471124792,591.054775787016,353.925463749496,-2.29711179353617
2,5,3,AsyncTheta,19,1247_4Hz.avi,choir38_oneeighty_4Hz.wav,choir,1,7.28173190000052,1,2,19,52,63,38,1,3,5,5.51986688,NaN,9379.0452209,1,NaN,NaN,NaN,1.08130875175224,394.2646261891,322.24290270635,0.00655082433465
2,6,3,AsyncTheta,63,1128_4Hz.avi,choir26_oneeighty_4Hz.wav,choir,1,4.11626679999972,0,2,19,38,52,63,4,13,1,5.51986688,NaN,9388.1619384,1,NaN,NaN,NaN,0.889243567566239,324.234204328255,280.409070109064,2.64850197300255
2,7,3,AsyncTheta,38,1184_4Hz.avi,choir33_oneeighty_4Hz.wav,choir,1,4.93809119999969,0,2,52,63,38,19,3,2,2,5.51986688,NaN,9395.3286524,1,NaN,NaN,NaN,0.998504971105869,364.072877929705,541.178254788979,0.617573693478317
2,8,3,AsyncTheta,43,1141_4Hz.avi,dar13_oneeighty_4Hz.wav,dar,1,8.44164040000032,0,2,40,49,34,43,4,16,4,5.51986688,NaN,9403.5119693,1,NaN,NaN,NaN,1.71105140153018,623.880126856872,763.791250111517,2.72616206867444
2,9,3,AsyncTheta,36,1284_4Hz.avi,orch29_oneeighty_4Hz.wav,orch,1,9.74420520000058,0,2,42,57,81,36,4,4,2,5.51986688,NaN,9414.6953841,1,NaN,NaN,NaN,0.723983736873965,263.977496642888,427.031186545228,-2.06194184578152
2,10,3,AsyncTheta,57,1309_4Hz.avi,orch7_oneeighty_4Hz.wav,orch,2,8.9728109000007,0,2,57,42,81,36,1,1,5,5.51986688,NaN,9427.4620482,1,NaN,NaN,NaN,0.696256071085673,253.867490810232,275.633943584618,-1.4476824586789
2,11,3,AsyncTheta,52,1387_4Hz.avi,choir2_oneeighty_4Hz.wav,choir,1,3.89280970000073,1,2,52,38,19,63,1,7,3,5.51986688,NaN,9438.8953964,1,NaN,NaN,NaN,1.80522634558159,658.218005887851,324.789019385727,-0.212890315781329
2,12,3,AsyncTheta,42,1339_4Hz.avi,orch31_oneeighty_4Hz.wav,orch,2,9.26226529999985,1,2,57,42,81,36,2,14,1,5.51986688,NaN,9445.1621082,1,NaN,NaN,NaN,0.69159942633815,252.16959435124,413.953561602014,-2.07603134278157
2,13,3,AsyncTheta,49,1221_4Hz.avi,dar21_oneeighty_4Hz.wav,dar,3,8.33570730000065,0,2,43,49,40,34,2,5,2,5.51986688,NaN,9456.9788293,1,NaN,NaN,NaN,1.76918129038908,645.075330228926,365.037755023008,0.777051035078421
2,14,3,AsyncTheta,21,1112_4Hz.avi,acoustic32_oneeighty_4Hz.wav,acoustic,1,4.04166780000014,0,2,23,44,21,20,3,15,5,5.51986688,NaN,9467.062175,1,NaN,NaN,NaN,0.984860771146894,359.097957133256,263.5662690517,-0.11089989042803
2,15,3,AsyncTheta,23,1330_4Hz.avi,acoustic47_oneeighty_4Hz.wav,acoustic,1,6.72071379999943,0,2,20,23,21,44,2,6,4,5.51986688,NaN,9473.0455223,1,NaN,NaN,NaN,0.492651033786651,179.629430875145,332.118157453246,-0.466377537550364
2,16,3,AsyncTheta,44,1254_4Hz.avi,acoustic48_oneeighty_4Hz.wav,acoustic,1,2.38152980000086,0,2,20,44,23,21,2,10,4,5.51986688,NaN,9482.3455182,1,NaN,NaN,NaN,0.906786563043963,330.630696119387,559.61558423437,-2.65979305913289
2,1,4,SyncDelta,82,1449_1.7Hz.avi,dar17_zero_1.7Hz.wav,dar,3,8.45727110000007,0,2,82,116,191,103,1,10,4,5.40596086333333,NaN,9656.1793546,1,NaN,NaN,NaN,0.857238383095264,312.564538221221,358.226262429094,NaN
2,2,4,SyncDelta,110,1443_1.7Hz.avi,orch3_zero_1.7Hz.wav,orch,1,5.89150969999901,0,2,141,134,110,192,3,8,5,5.40596086333333,NaN,9666.3960702,1,NaN,NaN,NaN,2.19115096064067,798.933064234393,365.082915428694,NaN
2,3,4,SyncDelta,190,1427_1.7Hz.avi,acoustic46_zero_1.7Hz.wav,acoustic,4,3.53681899999901,1,2,104,83,79,190,4,11,5,5.40596086333333,NaN,9674.6794284,1,NaN,NaN,NaN,0.520643854715489,189.836117042812,297.358230683068,NaN
2,4,4,SyncDelta,116,1420_1.7Hz.avi,dar18_zero_1.7Hz.wav,dar,3,8.39016699999956,1,2,103,82,116,191,3,5,5,5.40596086333333,NaN,9680.0794541,1,NaN,NaN,NaN,1.97859326998347,721.430705805522,559.321483813097,NaN
2,5,4,SyncDelta,97,1368_1.7Hz.avi,choir30_zero_1.7Hz.wav,choir,3,7.15773429999899,0,2,78,97,182,76,2,4,4,5.40596086333333,NaN,9690.4294704,1,NaN,NaN,NaN,0.540577706630263,197.10435810805,442.632483610951,NaN
2,6,4,SyncDelta,182,1277_1.7Hz.avi,choir39_zero_1.7Hz.wav,choir,4,4.52092799999991,1,2,76,97,78,182,4,12,1,5.40596086333333,NaN,9700.3628086,1,NaN,NaN,NaN,0.625257916884387,227.980286363837,341.80987850987,NaN
2,7,4,SyncDelta,76,1293_1.7Hz.avi,choir23_zero_1.7Hz.wav,choir,2,7.68392250000034,1,2,182,76,97,78,2,1,5,5.40596086333333,NaN,9707.1295182,1,NaN,NaN,NaN,0.992903918403551,362.030633338263,345.038868176595,NaN
2,8,4,SyncDelta,191,1314_1.7Hz.avi,dar19_zero_1.7Hz.wav,dar,3,8.40041100000053,1,2,116,103,191,82,3,14,3,5.40596086333333,NaN,9716.8295466,1,NaN,NaN,NaN,1.21360060382206,442.500615696862,463.564340456522,NaN
2,9,4,SyncDelta,192,1231_1.7Hz.avi,orch32_zero_1.7Hz.wav,orch,3,6.54392729999927,0,2,110,141,134,192,4,6,5,5.40596086333333,NaN,9728.0296173,1,NaN,NaN,NaN,1.48516725089426,541.518701345245,374.856031504121,NaN
2,10,4,SyncDelta,134,1026_1.7Hz.avi,orch16_zero_1.7Hz.wav,orch,3,7.34052509999856,0,2,134,192,110,141,1,2,2,5.40596086333333,NaN,9736.1962717,1,NaN,NaN,NaN,0.59959897975169,218.624576220329,345.091445110956,NaN
2,11,4,SyncDelta,78,1301_1.7Hz.avi,choir11_zero_1.7Hz.wav,choir,3,9.2367262000007,0,2,76,78,97,182,2,9,5,5.40596086333333,NaN,9745.2129837,1,NaN,NaN,NaN,0.312183342703464,113.827663665897,386.689783276001,NaN
2,12,4,SyncDelta,141,1401_1.7Hz.avi,orch12_zero_1.7Hz.wav,orch,2,9.45711919999849,0,2,141,110,192,134,1,13,5,5.40596086333333,NaN,9756.7796369,1,NaN,NaN,NaN,0.459773192608005,167.641578431337,345.125727451207,NaN
2,13,4,SyncDelta,103,1084_1.7Hz.avi,dar20_zero_1.7Hz.wav,dar,1,13.9305719999993,0,2,191,103,116,82,2,3,3,5.40596086333333,NaN,9768.7296975,1,NaN,NaN,NaN,0.37129634761294,135.381328838571,395.201715468151,NaN
2,14,4,SyncDelta,104,1111_1.7Hz.avi,acoustic31_zero_1.7Hz.wav,acoustic,2,8.05735119999918,0,2,79,190,83,104,4,16,5,5.40596086333333,NaN,9785.5464248,1,NaN,NaN,NaN,2.06430678657385,752.683396143128,411.109490613855,NaN
2,15,4,SyncDelta,83,1139_1.7Hz.avi,acoustic27_zero_1.7Hz.wav,acoustic,4,8.15690760000143,0,2,83,104,79,190,1,7,5,5.40596086333333,NaN,9796.1131347,1,NaN,NaN,NaN,1.5014781814102,547.465960083548,442.825165944153,NaN
2,16,4,SyncDelta,79,1071_1.7Hz.avi,acoustic17_zero_1.7Hz.wav,acoustic,2,3.93180140000004,0,2,79,83,104,190,1,15,5,5.40596086333333,NaN,9805.9298035,1,NaN,NaN,NaN,1.12649742073005,410.741227949373,351.708157013683,NaN
2,1,5,AsyncTheta,45,1203_4Hz.avi,dar2_oneeighty_4Hz.wav,dar,1,9.02648369999952,1,2,45,29,2,14,1,9,2,6.45136439,NaN,10097.7305419,2,NaN,NaN,NaN,0.822897474674469,300.043225136888,258.387751763155,0.880017397925601
2,2,5,AsyncTheta,30,1016_4Hz.avi,orch14_oneeighty_4Hz.wav,orch,1,5.05031020000024,0,2,17,74,28,30,4,11,2,6.45136439,NaN,10109.3805953,2,NaN,NaN,NaN,1.61780948904456,589.882447922223,461.87204730749,2.22384735171589
2,3,5,AsyncTheta,4,1167_4Hz.avi,acoustic37_oneeighty_4Hz.wav,acoustic,4,6.33954190000077,1,2,39,1,5,4,4,5,5,6.45136439,NaN,10117.7806527,2,NaN,NaN,NaN,3.64302339733983,1328.3118772717,629.193667617264,-0.503335994106776
2,4,5,AsyncTheta,2,1431_4Hz.avi,dar24_oneeighty_4Hz.wav,dar,2,10.9012905999989,0,2,29,45,2,14,3,3,4,6.45136439,NaN,10125.7806748,2,NaN,NaN,NaN,3.04424020350932,1109.98475127615,426.054708388197,-2.43344296789373
2,5,5,AsyncTheta,10,1179_4Hz.avi,choir4_oneeighty_4Hz.wav,choir,3,10.5808132999991,0,2,11,10,12,62,2,7,4,6.45136439,NaN,10138.0806792,2,NaN,NaN,NaN,2.58498938098306,942.533638375291,453.690298465806,1.34525116100709
2,6,5,AsyncTheta,11,1448_4Hz.avi,choir36_oneeighty_4Hz.wav,choir,4,4.2642896999987,0,2,62,11,10,12,2,16,2,6.45136439,NaN,10150.2807219,2,NaN,NaN,NaN,1.39566234303411,508.883601534588,306.082776626379,-0.965184378558949
2,7,5,AsyncTheta,12,1077_4Hz.avi,choir18_oneeighty_4Hz.wav,choir,3,6.95521680000093,0,2,62,12,10,11,2,6,4,6.45136439,NaN,10156.9640683,2,NaN,NaN,NaN,0.474416944691811,172.980953916805,448.190502890231,-2.15034968507053
2,8,5,AsyncTheta,14,1416_4Hz.avi,dar1_oneeighty_4Hz.wav,dar,1,7.39536899999985,0,2,29,2,45,14,4,14,2,6.45136439,NaN,10165.5807612,2,NaN,NaN,NaN,0.959000623909457,349.668882165314,360.887514299793,2.47772615985747
2,9,5,AsyncTheta,74,1337_4Hz.avi,orch24_oneeighty_4Hz.wav,orch,3,5.1615641999997,0,2,30,74,17,28,2,10,3,6.45136439,NaN,10175.2141458,2,NaN,NaN,NaN,1.00882998675131,367.837564405468,323.40160733079,-2.05511742092498
2,10,5,AsyncTheta,17,1162_4Hz.avi,orch1_oneeighty_4Hz.wav,orch,4,7.23693160000039,1,2,74,30,28,17,4,2,5,6.45136439,NaN,10182.6141144,2,NaN,NaN,NaN,1.71388862090278,624.914628088404,445.848397045189,1.99920655932942
2,11,5,AsyncTheta,62,1058_4Hz.avi,choir19_oneeighty_4Hz.wav,choir,3,7.77826690000074,0,2,62,11,12,10,1,12,3,6.45136439,NaN,10192.3808362,2,NaN,NaN,NaN,1.34441006766043,490.196099783769,322.604335171629,0.672824423546023
2,12,5,AsyncTheta,28,1148_4Hz.avi,orch19_oneeighty_4Hz.wav,orch,4,8.16084600000067,0,2,17,30,28,74,3,15,3,6.45136439,NaN,10201.5641917,2,NaN,NaN,NaN,1.58876253091313,579.291404364072,335.226025141744,-1.06048168167932
2,13,5,AsyncTheta,29,1158_4Hz.avi,dar23_oneeighty_4Hz.wav,dar,2,7.89149999999972,1,2,2,29,45,14,2,1,4,6.45136439,NaN,10211.9475618,2,NaN,NaN,NaN,1.60044404840231,583.550695818736,492.865108616872,-1.26679230982533
2,14,5,AsyncTheta,39,1061_4Hz.avi,acoustic11_oneeighty_4Hz.wav,acoustic,1,6.71680699999888,1,2,39,1,5,4,1,13,5,6.45136439,NaN,10223.1142567,2,NaN,NaN,NaN,0.309317173450405,112.782606787073,416.035303060685,0.266114993942161
2,15,5,AsyncTheta,1,1064_4Hz.avi,acoustic12_oneeighty_4Hz.wav,acoustic,4,8.62025779999931,0,2,5,1,39,4,2,4,4,6.45136439,NaN,10233.1309254,2,NaN,NaN,NaN,0.980748592485284,357.598582805419,377.388464437088,-1.93982345589556
2,16,5,AsyncTheta,5,1381_4Hz.avi,acoustic1_oneeighty_4Hz.wav,acoustic,4,7.7472471000001,0,2,5,39,4,1,1,8,4,6.45136439,NaN,10244.3309807,2,NaN,NaN,NaN,0.999952663834253,364.600732745888,367.443430680135,-1.10337376489052
2,1,6,NoFlicker,50,1049_half_amp.avi,synth43_half_amp.wav,synth,1,10.8117108000006,1,2,50,70,71,89,1,7,3,5.74334907333333,NaN,10436.1482034,2,NaN,NaN,NaN,2.0833348685937,759.621377207736,409.37394287754,NaN
2,2,6,NoFlicker,66,1215_half_amp.avi,willow18_half_amp.wav,willow,4,6.86050749999958,1,2,55,27,75,66,4,14,2,5.74334907333333,NaN,10450.248267,2,NaN,NaN,NaN,0.975124449553166,355.547919100744,286.045244006158,NaN
2,3,6,NoFlicker,87,1142_half_amp.avi,ep3_half_amp.wav,ep,1,11.2194546999999,0,2,86,87,65,24,2,8,2,5.74334907333333,NaN,10458.6149066,2,NaN,NaN,NaN,0.205448538462902,74.9102336283808,352.807409643409,NaN
2,4,6,NoFlicker,71,1076_half_amp.avi,synth21_half_amp.wav,synth,3,7.68566409999949,0,2,71,70,50,89,1,6,2,5.74334907333333,NaN,10472.2149492,2,NaN,NaN,NaN,3.13259746741678,1142.20139945283,485.23628113937,NaN
2,5,6,NoFlicker,77,1008_half_amp.avi,guitar42_half_amp.wav,guitar,2,8.44786070000009,0,2,77,67,15,73,1,5,4,5.74334907333333,NaN,10482.1649823,2,NaN,NaN,NaN,2.39320195820352,872.604493320824,371.665203970948,NaN
2,6,6,NoFlicker,67,1310_half_amp.avi,guitar21_half_amp.wav,guitar,2,7.65680669999892,0,2,77,73,67,15,3,16,3,5.74334907333333,NaN,10492.1983634,2,NaN,NaN,NaN,2.56189273606043,934.112186073268,483.887075322927,NaN
2,7,6,NoFlicker,73,1369_half_amp.avi,guitar19_half_amp.wav,guitar,1,6.40234950000013,0,2,77,15,67,73,4,4,5,5.74334907333333,NaN,10501.2483703,2,NaN,NaN,NaN,1.08378565282153,395.167748884271,542.351269143759,NaN
2,8,6,NoFlicker,70,1093_half_amp.avi,synth6_half_amp.wav,synth,2,7.47615410000071,0,2,71,50,89,70,4,12,4,5.74334907333333,NaN,10510.2483872,2,NaN,NaN,NaN,1.68222470743397,613.369395529034,354.877355355893,NaN
2,9,6,NoFlicker,27,1202_half_amp.avi,willow16_half_amp.wav,willow,1,8.68442340000001,0,2,55,75,27,66,3,13,2,5.74334907333333,NaN,10521.0817528,2,NaN,NaN,NaN,0.454312318344059,165.650445420668,444.249304557961,NaN
2,10,6,NoFlicker,75,1040_half_amp.avi,willow17_half_amp.wav,willow,2,6.64865150000151,1,2,27,75,55,66,2,1,5,5.74334907333333,NaN,10532.3818246,2,NaN,NaN,NaN,0.544920440212386,198.687796908134,298.620581289554,NaN
2,11,6,NoFlicker,15,1422_half_amp.avi,guitar37_half_amp.wav,guitar,4,10.8672595999997,1,2,67,77,73,15,4,10,2,5.74334907333333,NaN,10541.6985028,2,NaN,NaN,NaN,1.10224308262702,401.89765988414,349.325548972979,NaN
2,12,6,NoFlicker,55,1044_half_amp.avi,willow4_half_amp.wav,willow,1,10.0726173999992,1,2,55,27,66,75,1,15,2,5.74334907333333,NaN,10554.5818755,2,NaN,NaN,NaN,1.05796429777226,385.752818246095,365.392962115598,NaN
2,13,6,NoFlicker,89,1393_half_amp.avi,synth41_half_amp.wav,synth,4,11.5443661999998,1,2,70,71,50,89,4,2,2,5.74334907333333,NaN,10566.4819103,2,NaN,NaN,NaN,1.11332492561504,405.938299226121,481.251121093556,NaN
2,14,6,NoFlicker,65,1013_half_amp.avi,ep22_half_amp.wav,ep,2,2.81671029999961,1,2,86,65,87,24,2,11,5,5.74334907333333,NaN,10579.8652917,2,NaN,NaN,NaN,0.982750488101845,358.328509966051,298.802012998524,NaN
2,15,6,NoFlicker,24,1217_half_amp.avi,ep44_half_amp.wav,ep,4,5.92641989999902,1,2,86,87,65,24,4,3,5,5.74334907333333,NaN,10584.6652699,2,NaN,NaN,NaN,0.972118726911391,354.451978545498,381.506168854911,NaN
2,16,6,NoFlicker,86,1278_half_amp.avi,ep35_half_amp.wav,ep,1,3.38194509999994,1,2,86,65,87,24,1,9,5,5.74334907333333,NaN,10593.381985,2,NaN,NaN,NaN,0.52660510697227,192.009696872653,334.864885771255,NaN
2,1,7,SyncDelta,126,1298_1.7Hz.avi,dar9_zero_1.7Hz.wav,dar,2,10.422042799999,0,2,126,147,136,187,1,10,1,5.45621372333333,NaN,10773.7991954,2,NaN,NaN,NaN,0.773060251291847,281.87167680214,391.542060201774,NaN
2,2,7,SyncDelta,188,1036_1.7Hz.avi,orch26_zero_1.7Hz.wav,orch,3,8.28068979999989,0,2,143,145,158,188,4,12,4,5.45621372333333,NaN,10787.2825223,2,NaN,NaN,NaN,0.268194123975145,97.7884030475342,212.556753619013,NaN
2,3,7,SyncDelta,175,1103_1.7Hz.avi,acoustic10_zero_1.7Hz.wav,acoustic,4,5.60408629999984,0,2,107,175,133,113,2,4,4,5.45621372333333,NaN,10797.3492467,2,NaN,NaN,NaN,1.80783852825966,659.170454691618,334.50980974591,NaN
2,4,7,SyncDelta,187,1164_1.7Hz.avi,dar12_zero_1.7Hz.wav,dar,2,4.67488770000091,1,2,147,187,136,126,2,8,5,5.45621372333333,NaN,10805.8492691,2,NaN,NaN,NaN,0.635470442435182,231.70395692713,384.538706236327,NaN
2,5,7,SyncDelta,121,1354_1.7Hz.avi,choir22_zero_1.7Hz.wav,choir,2,5.99648729999899,0,2,121,139,124,181,1,9,1,5.45621372333333,NaN,10812.2992919,2,NaN,NaN,NaN,0.647478720297439,236.082391093011,365.862024449069,NaN
2,6,7,SyncDelta,124,1183_1.7Hz.avi,choir24_zero_1.7Hz.wav,choir,4,5.06991339999877,0,2,121,139,124,181,3,16,1,5.45621372333333,NaN,10820.3326622,2,NaN,NaN,NaN,1.2943923355351,471.958734713649,441.309872670617,NaN
2,7,7,SyncDelta,139,1192_1.7Hz.avi,choir5_zero_1.7Hz.wav,choir,4,8.16656460000013,0,2,124,181,139,121,3,7,2,5.45621372333333,NaN,10827.316003,2,NaN,NaN,NaN,1.04938185665299,382.623505795609,362.786936272823,NaN
2,8,7,SyncDelta,147,1304_1.7Hz.avi,dar10_zero_1.7Hz.wav,dar,2,6.96181539999998,0,2,147,187,126,136,1,15,1,5.45621372333333,NaN,10837.8493418,2,NaN,NaN,NaN,1.29735199288427,473.037879034389,302.649132990424,NaN
2,9,7,SyncDelta,158,1206_1.7Hz.avi,orch6_zero_1.7Hz.wav,orch,2,6.58887330000107,0,2,158,145,143,188,1,3,2,5.45621372333333,NaN,10847.8994379,2,NaN,NaN,NaN,0.414487841158508,151.129724502341,383.20114768228,NaN
2,10,7,SyncDelta,145,1352_1.7Hz.avi,orch39_zero_1.7Hz.wav,orch,3,8.21201599999949,0,2,145,143,158,188,1,2,2,5.45621372333333,NaN,10856.5994451,2,NaN,NaN,NaN,1.54809866698399,564.464627936481,422.170961318313,NaN
2,11,7,SyncDelta,181,1168_1.7Hz.avi,choir1_zero_1.7Hz.wav,choir,2,12.2994995999998,0,2,181,121,124,139,1,11,4,5.45621372333333,NaN,10867.2160941,2,NaN,NaN,NaN,0.116532378632322,42.4898019422732,322.67799878019,NaN
2,12,7,SyncDelta,143,1127_1.7Hz.avi,orch11_zero_1.7Hz.wav,orch,1,8.76402009999947,0,2,188,158,145,143,4,14,3,5.45621372333333,NaN,10881.5995196,2,NaN,NaN,NaN,1.10862617015434,404.22504844343,359.867183654183,NaN
2,13,7,SyncDelta,136,1175_1.7Hz.avi,dar4_zero_1.7Hz.wav,dar,2,7.19428420000077,0,2,126,147,187,136,4,5,4,5.45621372333333,NaN,10892.9994952,2,NaN,NaN,NaN,0.52808991596522,192.551084946705,517.753100678886,NaN
2,14,7,SyncDelta,107,1265_1.7Hz.avi,acoustic16_zero_1.7Hz.wav,acoustic,4,8.93584939999892,0,2,133,107,175,113,2,13,1,5.45621372333333,NaN,10901.5829092,2,NaN,NaN,NaN,0.124879046993456,45.5331474030346,209.102387398921,NaN
2,15,7,SyncDelta,113,1037_1.7Hz.avi,acoustic23_zero_1.7Hz.wav,acoustic,2,4.99880200000007,1,2,107,113,133,175,2,1,5,5.45621372333333,NaN,10913.0662253,2,NaN,NaN,NaN,0.938147384362,342.065415827243,303.245725168485,NaN
2,16,7,SyncDelta,133,1341_1.7Hz.avi,acoustic14_zero_1.7Hz.wav,acoustic,3,3.12366900000052,1,2,107,175,133,113,3,6,5,5.45621372333333,NaN,10921.0995837,2,NaN,NaN,NaN,0.537781148151731,196.08468257008,315.207003583576,NaN
2,1,8,SyncTheta,111,1390_4Hz.avi,synth3_zero_4Hz.wav,synth,2,10.3487583000006,0,2,111,128,125,184,1,13,5,5.74468653,NaN,11107.3667892,2,NaN,NaN,NaN,1.15479572553033,421.059299032944,284.903065224884,0.246203925067636
2,2,8,SyncTheta,119,1189_4Hz.avi,willow11_zero_4Hz.wav,willow,1,13.5477816000002,1,2,119,171,130,118,1,8,5,5.74468653,NaN,11119.7835438,2,NaN,NaN,NaN,0.904735593624757,329.882875767356,273.862780071479,-0.205680423570513
2,3,8,SyncTheta,180,1006_4Hz.avi,ep4_zero_4Hz.wav,ep,4,7.87313189999986,0,2,138,117,180,123,3,9,4,5.74468653,NaN,11135.600258,2,NaN,NaN,NaN,0.607233235779725,221.408163326461,284.009350196958,1.3238722318844
2,4,8,SyncTheta,125,1050_4Hz.avi,synth36_zero_4Hz.wav,synth,3,7.05777800000033,0,2,111,125,128,184,2,10,3,5.74468653,NaN,11145.1835851,2,NaN,NaN,NaN,0.481980099058795,175.738616078031,206.127861068837,0.0747941253541633
2,5,8,SyncTheta,112,1388_4Hz.avi,guitar39_zero_4Hz.wav,guitar,2,3.81901860000107,0,2,115,183,151,112,4,3,3,5.74468653,NaN,11155.1169299,2,NaN,NaN,NaN,1.12838763013345,411.430432307188,272.384450118303,0.99623800682836
2,6,8,SyncTheta,151,1259_4Hz.avi,guitar43_zero_4Hz.wav,guitar,3,4.77717570000095,0,2,183,112,115,151,4,11,3,5.74468653,NaN,11160.7002762,2,NaN,NaN,NaN,1.05333174313056,384.063705473126,406.354474777292,-0.102045794899916
2,7,8,SyncTheta,183,1374_4Hz.avi,guitar16_zero_4Hz.wav,guitar,1,8.45571729999938,0,2,115,183,112,151,2,2,2,5.74468653,NaN,11167.2669576,2,NaN,NaN,NaN,1.09312306707502,398.572338123242,277.58988090952,1.69169929288243
2,8,8,SyncTheta,184,1052_4Hz.avi,synth40_zero_4Hz.wav,synth,2,8.34748070000023,1,2,125,184,128,111,2,15,2,5.74468653,NaN,11177.8503537,2,NaN,NaN,NaN,0.49471386792006,180.381577315448,261.510262248811,0.84870718070352
2,9,8,SyncTheta,118,1020_4Hz.avi,willow22_zero_4Hz.wav,willow,2,8.77129980000063,1,2,130,118,171,119,2,7,1,5.74468653,NaN,11188.6170267,2,NaN,NaN,NaN,0.816502076688325,297.711347962814,434.230018299097,0.106148112072428
2,10,8,SyncTheta,130,1081_4Hz.avi,willow5_zero_4Hz.wav,willow,1,9.21473309999965,0,2,119,130,171,118,2,5,3,5.74468653,NaN,11200.0004195,2,NaN,NaN,NaN,3.98480681224599,1452.93225983796,607.068997503001,0.900157360405165
2,11,8,SyncTheta,115,1370_4Hz.avi,guitar9_zero_4Hz.wav,guitar,2,4.8315720999999,0,2,151,183,112,115,4,4,2,5.74468653,NaN,11210.8337562,2,NaN,NaN,NaN,0.380627114783297,138.783494431438,238.590627423478,-1.63486062156983
2,12,8,SyncTheta,171,1280_4Hz.avi,willow19_zero_4Hz.wav,willow,4,3.81074320000153,0,2,130,171,118,119,2,14,5,5.74468653,NaN,11217.0338007,2,NaN,NaN,NaN,2.05346577280673,748.730567468177,329.382460017118,-1.79327989800159
2,13,8,SyncTheta,128,1269_4Hz.avi,synth14_zero_4Hz.wav,synth,2,9.83642709999913,1,2,184,128,111,125,2,1,4,5.74468653,NaN,11223.0838031,2,NaN,NaN,NaN,0.826116881400817,301.217078754051,506.395666631346,-0.963380008943648
2,14,8,SyncTheta,138,1149_4Hz.avi,ep2_zero_4Hz.wav,ep,1,12.0477757999997,0,2,180,138,117,123,2,16,5,5.74468653,NaN,11235.7338556,2,NaN,NaN,NaN,0.495669444846622,180.72999785596,373.365436943095,-0.909444197715733
2,15,8,SyncTheta,123,1067_4Hz.avi,ep37_zero_4Hz.wav,ep,2,5.3273524999986,1,2,138,123,117,180,2,6,5,5.74468653,NaN,11250.2005867,2,NaN,NaN,NaN,0.345837897247403,126.0987197776,264.661632818892,-2.61830014027153
2,16,8,SyncTheta,117,1144_4Hz.avi,ep39_zero_4Hz.wav,ep,1,10.9093546999993,0,2,123,180,138,117,4,12,4,5.74468653,NaN,11258.1339219,2,NaN,NaN,NaN,2.32225038932537,846.734274721424,324.953390573089,1.32937561338959
2,1,9,SyncDelta,154,1074_1.7Hz.avi,dar5_zero_1.7Hz.wav,dar,4,8.91890430000058,1,2,114,162,122,154,4,13,5,5.86509429,24.0477848566667,11548.3513178,3,NaN,NaN,NaN,0.477400030102978,174.068640530474,249.449352798456,NaN
2,2,9,SyncDelta,137,1303_1.7Hz.avi,orch10_zero_1.7Hz.wav,orch,4,9.20102650000081,0,2,165,137,142,174,2,10,3,5.86509429,24.0477848566667,11559.1347027,3,NaN,NaN,NaN,0.579214772463086,211.192127482835,365.490713599101,NaN
2,3,9,SyncDelta,169,1083_1.7Hz.avi,acoustic43_zero_1.7Hz.wav,acoustic,3,7.52412579999873,0,2,169,96,148,105,1,3,5,5.86509429,24.0477848566667,11571.068069,3,NaN,NaN,NaN,0.128007700892696,46.6739109065761,254.401187323098,NaN
2,4,9,SyncDelta,114,1322_1.7Hz.avi,dar14_zero_1.7Hz.wav,dar,4,7.04626789999929,1,2,162,154,122,114,4,12,3,5.86509429,24.0477848566667,11580.4347356,3,NaN,NaN,NaN,0.311892869127688,113.721751773863,328.665566103128,NaN
2,5,9,SyncDelta,159,1091_1.7Hz.avi,choir8_zero_1.7Hz.wav,choir,3,4.70095589999983,1,2,98,160,159,88,3,7,1,5.86509429,24.0477848566667,11590.8014504,3,NaN,NaN,NaN,0.942950930639215,343.816875227067,333.651884518857,NaN
2,6,9,SyncDelta,160,1421_1.7Hz.avi,choir13_zero_1.7Hz.wav,choir,2,6.5499276999999,0,2,160,88,98,159,1,16,2,5.86509429,24.0477848566667,11598.2348206,3,NaN,NaN,NaN,0.215350421328702,78.5206382795284,912.648564717871,NaN
2,7,9,SyncDelta,98,1014_1.7Hz.avi,choir41_zero_1.7Hz.wav,choir,1,7.26982210000097,0,2,159,88,160,98,4,4,4,5.86509429,24.0477848566667,11607.0515334,3,NaN,NaN,NaN,0.601669267886164,219.379440523535,302.319462851094,NaN
2,8,9,SyncDelta,122,1289_1.7Hz.avi,dar3_zero_1.7Hz.wav,dar,4,8.11186749999979,1,2,162,114,154,122,4,15,2,5.86509429,24.0477848566667,11617.6682097,3,NaN,NaN,NaN,0.0241105871447108,8.79115387941226,279.344948570095,NaN
2,9,9,SyncDelta,142,1155_1.7Hz.avi,orch9_zero_1.7Hz.wav,orch,3,6.42920739999863,1,2,174,165,142,137,3,9,3,5.86509429,24.0477848566667,11627.8015618,3,NaN,NaN,NaN,0.436695133562649,159.226902874571,267.009341708389,NaN
2,10,9,SyncDelta,174,1119_1.7Hz.avi,orch45_zero_1.7Hz.wav,orch,3,5.82269579999956,0,2,142,174,137,165,2,1,4,5.86509429,24.0477848566667,11636.0349174,3,NaN,NaN,NaN,0.556626255384813,202.955947735284,362.515955187397,NaN
2,11,9,SyncDelta,88,1191_1.7Hz.avi,choir20_zero_1.7Hz.wav,choir,1,2.8441215999992,1,2,88,98,159,160,1,8,4,5.86509429,24.0477848566667,11643.684916,3,NaN,NaN,NaN,1.95903384991789,714.298989329412,598.651532404301,NaN
2,12,9,SyncDelta,165,1410_1.7Hz.avi,orch43_zero_1.7Hz.wav,orch,2,7.35485440000048,0,2,174,137,165,142,3,14,2,5.86509429,24.0477848566667,11648.8849615,3,NaN,NaN,NaN,0.103567268994841,37.7624896954808,200.81915859746,NaN
2,13,9,SyncDelta,162,1358_1.7Hz.avi,dar7_zero_1.7Hz.wav,dar,4,5.94807149999906,0,2,162,114,122,154,1,6,4,5.86509429,24.0477848566667,11657.6516766,3,NaN,NaN,NaN,0.823099916757321,300.117039162707,256.01916206833,NaN
2,14,9,SyncDelta,148,1121_1.7Hz.avi,acoustic26_zero_1.7Hz.wav,acoustic,3,9.42869359999895,0,2,105,148,169,96,2,11,5,5.86509429,24.0477848566667,11665.8516827,3,NaN,NaN,NaN,1.0585250569598,385.957281135256,251.102841850275,NaN
2,15,9,SyncDelta,96,1027_1.7Hz.avi,acoustic40_zero_1.7Hz.wav,acoustic,4,4.90631770000073,0,2,105,96,169,148,2,2,4,5.86509429,24.0477848566667,11677.1183759,3,NaN,NaN,NaN,0.145491154534773,53.0486926731325,341.528913795579,NaN
2,16,9,SyncDelta,105,1003_1.7Hz.avi,acoustic6_zero_1.7Hz.wav,acoustic,1,4.66192689999843,0,2,96,169,105,148,3,5,4,5.86509429,24.0477848566667,11683.9350568,3,NaN,NaN,NaN,0.708216167339663,258.228357094837,257.591853427746,NaN
2,1,10,NoFlicker,35,1039_half_amp.avi,synth5_half_amp.wav,synth,4,8.35298770000009,0,2,35,8,54,109,1,9,4,6.46213195,24.0477848566667,11915.7690231,3,NaN,NaN,NaN,0.430884374541576,157.108195586198,440.217844300529,NaN
2,2,10,NoFlicker,18,1101_half_amp.avi,willow13_half_amp.wav,willow,3,8.71747380000124,1,2,108,37,18,22,3,12,4,6.46213195,24.0477848566667,11925.5024103,3,NaN,NaN,NaN,0.426823037663119,155.627359087263,376.643615346362,NaN
2,3,10,NoFlicker,16,1442_half_amp.avi,ep34_half_amp.wav,ep,3,6.59878730000128,0,2,16,26,106,6,1,6,4,6.46213195,24.0477848566667,11936.6691177,3,NaN,NaN,NaN,0.385372427400426,140.513720791034,382.461232672491,NaN
2,4,10,NoFlicker,54,1181_half_amp.avi,synth12_half_amp.wav,synth,2,10.9779873999996,0,2,54,109,8,35,1,7,5,6.46213195,24.0477848566667,11945.5191361,3,NaN,NaN,NaN,0.451599279451293,164.661222626383,222.712371296816,NaN
2,5,10,NoFlicker,7,1017_half_amp.avi,guitar47_half_amp.wav,guitar,2,12.009105000001,0,2,7,93,53,3,1,3,5,6.46213195,24.0477848566667,11958.0858498,3,NaN,NaN,NaN,1.02364130602578,373.238037903581,407.968336102531,NaN
2,6,10,NoFlicker,3,1156_half_amp.avi,guitar31_half_amp.wav,guitar,4,6.56111710000005,0,2,7,3,93,53,2,16,4,6.46213195,24.0477848566667,11973.0358548,3,NaN,NaN,NaN,1.28119399843992,467.146383539467,407.176976085162,NaN
2,7,10,NoFlicker,53,1197_half_amp.avi,guitar46_half_amp.wav,guitar,2,8.10073969999939,0,2,7,3,93,53,4,1,4,6.46213195,24.0477848566667,11982.0192103,3,NaN,NaN,NaN,1.70954506665578,623.330890059143,525.260349319704,NaN
2,8,10,NoFlicker,109,1299_half_amp.avi,synth18_half_amp.wav,synth,2,9.77257850000024,0,2,35,54,109,8,3,15,2,6.46213195,24.0477848566667,11992.0859049,3,NaN,NaN,NaN,1.30884040590637,477.226761125953,556.035745907481,NaN
2,9,10,NoFlicker,108,1415_half_amp.avi,willow3_half_amp.wav,willow,3,13.8482408,0,2,18,37,22,108,4,8,3,6.46213195,24.0477848566667,12004.5526466,3,NaN,NaN,NaN,1.06827304243909,389.511572030307,384.932125096747,NaN
2,10,10,NoFlicker,22,1212_half_amp.avi,willow20_half_amp.wav,willow,2,7.4294976000001,0,2,18,37,108,22,4,2,2,6.46213195,24.0477848566667,12020.7026861,3,NaN,NaN,NaN,0.640241812933656,233.443684459107,337.045704216915,NaN
2,11,10,NoFlicker,93,1046_half_amp.avi,guitar18_half_amp.wav,guitar,4,7.18039850000059,1,2,53,7,3,93,4,13,4,6.46213195,24.0477848566667,12030.136045,3,NaN,NaN,NaN,1.70473992633629,621.578849442823,307.501377498529,NaN
2,12,10,NoFlicker,37,1237_half_amp.avi,willow15_half_amp.wav,willow,1,3.81466019999971,1,2,37,18,108,22,1,14,2,6.46213195,24.0477848566667,12039.5193898,3,NaN,NaN,NaN,1.31819585791076,480.637927253445,257.54787227807,NaN
2,13,10,NoFlicker,8,1252_half_amp.avi,synth25_half_amp.wav,synth,3,6.44481689999884,1,2,54,109,8,35,3,4,4,6.46213195,24.0477848566667,12045.8027261,3,NaN,NaN,NaN,0.755304311480869,275.397541675732,425.443410643263,NaN
2,14,10,NoFlicker,26,1190_half_amp.avi,ep7_half_amp.wav,ep,1,6.14602290000039,1,2,26,6,16,106,1,11,5,6.46213195,24.0477848566667,12054.402753,3,NaN,NaN,NaN,0.827704207968824,301.795846580503,234.72727659916,NaN
2,15,10,NoFlicker,6,1007_half_amp.avi,ep8_half_amp.wav,ep,2,4.63668549999966,1,2,106,6,26,16,2,5,4,6.46213195,24.0477848566667,12063.5861547,3,NaN,NaN,NaN,0.522898455196515,190.658184943785,368.379540314264,NaN
2,16,10,NoFlicker,106,1113_half_amp.avi,ep29_half_amp.wav,ep,2,6.51463420000073,0,2,6,16,106,26,3,10,4,6.46213195,24.0477848566667,12069.9361871,3,NaN,NaN,NaN,0.869655716829532,317.092121517919,248.426234092856,NaN
2,1,11,AsyncTheta,80,1082_4Hz.avi,dar15_oneeighty_4Hz.wav,dar,1,8.96922989999985,0,2,31,80,64,56,2,14,1,5.56910652333333,24.0477848566667,12273.7367115,3,NaN,NaN,NaN,1.8342022354085,668.783136663491,406.130605595231,0.868037720327294
2,2,11,AsyncTheta,91,1340_4Hz.avi,orch46_oneeighty_4Hz.wav,orch,2,3.76040760000069,0,2,91,33,85,102,1,12,5,5.56910652333333,24.0477848566667,12284.3534613,3,NaN,NaN,NaN,0.883188341601016,322.026359993507,407.470688349861,-0.459231189550102
2,3,11,AsyncTheta,60,1249_4Hz.avi,acoustic20_oneeighty_4Hz.wav,acoustic,1,6.64538179999909,0,2,9,60,58,47,2,9,3,5.56910652333333,24.0477848566667,12291.336766,3,NaN,NaN,NaN,0.436450524904205,159.137714156614,295.019442841369,-2.22458904236962
2,4,11,AsyncTheta,31,1404_4Hz.avi,dar8_oneeighty_4Hz.wav,dar,2,4.65126260000034,1,2,80,31,56,64,2,7,5,5.56910652333333,24.0477848566667,12300.486788,3,NaN,NaN,NaN,1.58377081566297,577.471335171107,367.019868497457,0.715072710812459
2,5,11,AsyncTheta,68,1023_4Hz.avi,choir3_oneeighty_4Hz.wav,choir,1,7.2105147000002,0,2,69,68,72,13,2,2,2,5.56910652333333,24.0477848566667,12307.9201779,3,NaN,NaN,NaN,2.71486583553112,989.888930487908,589.067859256082,1.50521994915218
2,6,11,AsyncTheta,69,1216_4Hz.avi,choir32_oneeighty_4Hz.wav,choir,1,6.22442200000114,0,2,68,69,13,72,2,10,3,5.56910652333333,24.0477848566667,12318.320165,3,NaN,NaN,NaN,1.61931344566147,590.430817564482,332.183059379126,-1.18382183682339
2,7,11,AsyncTheta,72,1097_4Hz.avi,choir29_oneeighty_4Hz.wav,choir,3,8.68842219999897,0,2,69,72,68,13,2,1,3,5.56910652333333,24.0477848566667,12327.5202496,3,NaN,NaN,NaN,0.409703356008357,149.3852151324,356.601901089689,-1.7490269409726
2,8,11,AsyncTheta,56,1063_4Hz.avi,dar16_oneeighty_4Hz.wav,dar,1,4.2411587000006,0,2,64,31,80,56,4,16,4,5.56910652333333,24.0477848566667,12337.6368866,3,NaN,NaN,NaN,0.605882869203321,220.915795376418,344.959318760617,-2.75640217841558
2,9,11,AsyncTheta,33,1136_4Hz.avi,orch38_oneeighty_4Hz.wav,orch,1,6.69086250000146,0,2,85,33,102,91,2,8,2,5.56910652333333,24.0477848566667,12343.4535998,3,NaN,NaN,NaN,1.64347307455845,599.239852949149,334.24394591037,1.95805146624915
2,10,11,AsyncTheta,102,1012_4Hz.avi,orch18_oneeighty_4Hz.wav,orch,3,5.00288490000094,0,2,91,102,33,85,2,6,5,5.56910652333333,24.0477848566667,12351.6369327,3,NaN,NaN,NaN,2.81039781801612,1024.7216101481,353.912940031762,-2.92208006919022
2,11,11,AsyncTheta,13,1201_4Hz.avi,choir7_oneeighty_4Hz.wav,choir,3,2.43146200000047,1,2,69,72,13,68,3,3,3,5.56910652333333,24.0477848566667,12358.4536488,3,NaN,NaN,NaN,2.14395204155749,781.723489116551,315.307645685495,-2.6866578736139
2,12,11,AsyncTheta,85,1383_4Hz.avi,orch23_oneeighty_4Hz.wav,orch,4,10.2174620000005,0,2,102,85,33,91,2,13,1,5.56910652333333,24.0477848566667,12363.286961,3,NaN,NaN,NaN,0.668204067922007,243.639225734919,410.325687648232,0.574774534037785
2,13,11,AsyncTheta,64,1098_4Hz.avi,dar11_oneeighty_4Hz.wav,dar,1,9.79221019999932,1,2,64,56,31,80,1,5,4,5.56910652333333,24.0477848566667,12375.5536912,3,NaN,NaN,NaN,1.0716481517056,390.742197595068,312.540839640972,0.0254421364954144
2,14,11,AsyncTheta,9,1054_4Hz.avi,acoustic44_oneeighty_4Hz.wav,acoustic,2,7.80226050000056,0,2,47,58,60,9,4,15,5,5.56910652333333,24.0477848566667,12388.3703895,3,NaN,NaN,NaN,0.783607968216765,285.717564171323,332.850170213356,1.52270023442749
2,15,11,AsyncTheta,47,1292_4Hz.avi,acoustic28_oneeighty_4Hz.wav,acoustic,4,5.45698840000114,0,2,60,47,9,58,2,4,3,5.56910652333333,24.0477848566667,12397.853769,3,NaN,NaN,NaN,1.95102764923695,711.379784510667,376.722617650032,-1.92629643059062
2,16,11,AsyncTheta,58,1323_4Hz.avi,acoustic29_oneeighty_4Hz.wav,acoustic,1,4.45158590000028,0,2,9,47,60,58,4,11,4,5.56910652333333,24.0477848566667,12406.2704484,3,NaN,NaN,NaN,2.13163481727893,777.232407528609,370.707728271307,0.339649670928992
2,1,12,SyncTheta,131,1366_4Hz.avi,synth34_zero_4Hz.wav,synth,4,5.8132913999998,1,2,155,140,186,131,4,10,3,5.28943996166667,24.0477848566667,12591.6876101,3,NaN,NaN,NaN,0.900744673353409,328.427714430334,519.920833080183,0.454554911450768
2,2,12,SyncTheta,157,1225_4Hz.avi,willow14_zero_4Hz.wav,willow,2,9.12987969999995,0,2,152,178,157,156,3,13,4,5.28943996166667,24.0477848566667,12600.2209976,3,NaN,NaN,NaN,1.60374791774212,584.75534602445,382.114710252557,-0.0658366690739959
2,3,12,SyncTheta,176,1405_4Hz.avi,ep46_zero_4Hz.wav,ep,1,7.4918863999992,0,2,189,176,173,150,2,2,4,5.28943996166667,24.0477848566667,12612.2877241,3,NaN,NaN,NaN,0.845759488056246,308.379126557542,275.4887452842,0.00800363972240616
2,4,12,SyncTheta,155,1042_4Hz.avi,synth10_zero_4Hz.wav,synth,4,8.50506189999942,0,2,155,131,140,186,1,7,3,5.28943996166667,24.0477848566667,12621.9544042,3,NaN,NaN,NaN,1.2997944022101,473.928425419305,443.618129624922,-0.364810318499547
2,5,12,SyncTheta,170,1062_4Hz.avi,guitar3_zero_4Hz.wav,guitar,3,4.54357680000066,0,2,170,164,185,172,1,5,4,5.28943996166667,24.0477848566667,12632.3544229,3,NaN,NaN,NaN,0.454459135219797,165.703977495144,239.892366713739,0.574810671938981
2,6,12,SyncTheta,185,1131_4Hz.avi,guitar45_zero_4Hz.wav,guitar,2,7.20059530000071,0,2,164,170,172,185,4,16,4,5.28943996166667,24.0477848566667,12639.0710783,3,NaN,NaN,NaN,1.33605501570252,487.149697512781,360.392416501311,0.199468356440238
2,7,12,SyncTheta,172,1350_4Hz.avi,guitar10_zero_4Hz.wav,guitar,3,4.36112370000046,0,2,170,164,185,172,4,4,2,5.28943996166667,24.0477848566667,12649.4044407,3,NaN,NaN,NaN,0.576444587749563,210.182068294114,330.193692595674,0.503261225243903
2,8,12,SyncTheta,140,1270_4Hz.avi,synth17_zero_4Hz.wav,synth,3,3.00178159999996,0,2,155,186,131,140,4,14,2,5.28943996166667,24.0477848566667,12656.7878057,3,NaN,NaN,NaN,1.99721128130736,728.219167716239,480.345163280411,-0.580703760999612
2,9,12,SyncTheta,152,1445_4Hz.avi,willow2_zero_4Hz.wav,willow,2,8.06014680000044,0,2,157,178,152,156,3,12,3,5.28943996166667,24.0477848566667,12662.8712095,3,NaN,NaN,NaN,0.486255795232353,177.29761183279,299.21177106874,-0.353547137370612
2,10,12,SyncTheta,156,1060_4Hz.avi,willow7_zero_4Hz.wav,willow,2,3.5293133999985,0,2,152,157,156,178,3,9,2,5.28943996166667,24.0477848566667,12673.6212023,3,NaN,NaN,NaN,0.68247692484559,248.843366171688,248.951775116777,0.349824491465182
2,11,12,SyncTheta,164,1087_4Hz.avi,guitar17_zero_4Hz.wav,guitar,3,4.49018959999921,0,2,164,185,170,172,1,8,4,5.28943996166667,24.0477848566667,12680.321222,3,NaN,NaN,NaN,1.2190842640885,444.500056894018,459.26577512049,0.384804306983338
2,12,12,SyncTheta,178,1057_4Hz.avi,willow9_zero_4Hz.wav,willow,1,7.61155019999933,0,2,152,178,156,157,2,15,3,5.28943996166667,24.0477848566667,12688.1045771,3,NaN,NaN,NaN,1.12281942784621,409.400165568141,244.717197247917,-1.63900062780061
2,13,12,SyncTheta,186,1031_4Hz.avi,synth7_zero_4Hz.wav,synth,1,3.54159859999891,0,2,131,186,140,155,2,3,4,5.28943996166667,24.0477848566667,12697.8212748,3,NaN,NaN,NaN,0.710060119861698,258.900695361436,307.089866888733,0.205224517376703
2,14,12,SyncTheta,173,1348_4Hz.avi,ep31_zero_4Hz.wav,ep,3,9.65683189999982,0,2,189,176,150,173,4,11,4,5.28943996166667,24.0477848566667,12704.071298,3,NaN,NaN,NaN,3.16950502522011,1155.65855908212,388.055010787357,-0.562917155906653
2,15,12,SyncTheta,150,1394_4Hz.avi,ep11_zero_4Hz.wav,ep,2,6.11889119999978,0,2,150,173,189,176,1,1,5,5.28943996166667,24.0477848566667,12715.4879844,3,NaN,NaN,NaN,2.93725082935979,1070.97450046951,343.835539633349,0.17050482268757
2,16,12,SyncTheta,189,1051_4Hz.avi,ep14_zero_4Hz.wav,ep,2,5.29412920000141,0,2,189,176,150,173,1,6,3,5.28943996166667,24.0477848566667,12722.9879804,3,NaN,NaN,NaN,0.798277853229146,291.066468192743,353.59296454636,0.656252921106503
3,1,1,NoFlicker,188,1036_half_amp.avi,orch26_half_amp.wav,orch,1,4.84842589999971,0,3,145,143,188,137,3,9,4,5.16555508666667,NaN,3103.9111501,1,NaN,NaN,NaN,1.03918154795376,245.145156600497,143.374481245649,NaN
3,2,1,NoFlicker,126,1298_half_amp.avi,dar9_half_amp.wav,dar,1,3.23449990000017,1,3,126,114,187,136,1,12,3,5.16555508666667,NaN,3110.7944579,1,NaN,NaN,NaN,0.407301173176927,96.0832205677952,199.048438992893,NaN
3,3,1,NoFlicker,136,1175_half_amp.avi,dar4_half_amp.wav,dar,1,3.75658930000009,0,3,187,126,136,114,3,11,4,5.16555508666667,NaN,3117.0944945,1,NaN,NaN,NaN,0.558238563701557,131.689674810454,115.458095463493,NaN
3,4,1,NoFlicker,113,1037_half_amp.avi,acoustic23_half_amp.wav,acoustic,2,5.46561359999987,1,3,107,113,96,175,2,4,2,5.16555508666667,NaN,3123.3278271,1,NaN,NaN,NaN,1.38461825269845,326.6344163424,331.922684376155,NaN
3,5,1,NoFlicker,96,1027_half_amp.avi,acoustic40_half_amp.wav,acoustic,2,4.24793379999983,1,3,113,96,175,107,2,15,3,5.16555508666667,NaN,3132.0279209,1,NaN,NaN,NaN,0.764777507909692,180.412654853453,132.759466170895,NaN
3,6,1,NoFlicker,121,1354_half_amp.avi,choir22_half_amp.wav,choir,2,2.43050250000033,1,3,88,121,124,181,2,14,2,5.16555508666667,NaN,3139.2945575,1,NaN,NaN,NaN,0.467761870413248,110.34602875695,83.3291376250569,NaN
3,7,1,NoFlicker,137,1303_half_amp.avi,orch10_half_amp.wav,orch,3,3.67815440000004,0,3,145,188,143,137,4,3,3,5.16555508666667,NaN,3144.3612741,1,NaN,NaN,NaN,0.569622003813525,134.37505275466,154.605207212016,NaN
3,8,1,NoFlicker,145,1352_half_amp.avi,orch39_half_amp.wav,orch,1,4.2475973999999,0,3,188,145,143,137,2,5,4,5.16555508666667,NaN,3150.2779865,1,NaN,NaN,NaN,0.389176152154417,91.8074892235467,214.045077175721,NaN
3,9,1,NoFlicker,143,1127_half_amp.avi,orch11_half_amp.wav,orch,4,3.55776590000005,0,3,145,188,143,137,3,13,1,5.16555508666667,NaN,3156.0113158,1,NaN,NaN,NaN,-0.0225183356794349,-5.31212369714176,89.8388187356893,NaN
3,10,1,NoFlicker,181,1168_half_amp.avi,choir1_half_amp.wav,choir,1,2.95308829999976,1,3,181,124,88,121,1,7,4,5.16555508666667,NaN,3162.7113527,1,NaN,NaN,NaN,0.54050832106512,127.507072534429,387.072112970827,NaN
3,11,1,NoFlicker,114,1322_half_amp.avi,dar14_half_amp.wav,dar,4,4.52179029999979,0,3,114,126,136,187,1,8,4,5.16555508666667,NaN,3167.6779999,1,NaN,NaN,NaN,0.498089845639939,117.500463177925,275.245323042171,NaN
3,12,1,NoFlicker,107,1265_half_amp.avi,acoustic16_half_amp.wav,acoustic,2,3.55922909999981,0,3,113,175,107,96,3,6,1,5.16555508666667,NaN,3175.461365,1,NaN,NaN,NaN,0.238598059423342,56.2857941012176,115.08551646675,NaN
3,13,1,NoFlicker,175,1103_half_amp.avi,acoustic10_half_amp.wav,acoustic,3,7.2957778,0,3,96,175,113,107,2,16,2,5.16555508666667,NaN,3181.7114291,1,NaN,NaN,NaN,1.18755412120244,280.146564945254,397.688865849042,NaN
3,14,1,NoFlicker,187,1164_half_amp.avi,dar12_half_amp.wav,dar,4,4.38951210000005,1,3,126,136,114,187,4,10,5,5.16555508666667,NaN,3191.1947689,1,NaN,NaN,NaN,0.335087111216451,79.0477684247913,191.250531914667,NaN
3,15,1,NoFlicker,124,1183_half_amp.avi,choir24_half_amp.wav,choir,4,4.33765270000004,0,3,121,124,88,181,2,2,1,5.16555508666667,NaN,3197.3781191,1,NaN,NaN,NaN,0.812471884154169,191.663860532036,371.47744387994,NaN
3,16,1,NoFlicker,88,1191_half_amp.avi,choir20_half_amp.wav,choir,2,5.41792650000025,1,3,124,88,121,181,2,1,4,5.16555508666667,NaN,3204.2781434,1,NaN,NaN,NaN,1.1547849387355,272.41624449899,274.461719116043,NaN
3,1,2,SyncDelta,57,1309_1.7Hz.avi,orch7_zero_1.7Hz.wav,orch,3,4.77527839999993,1,3,30,85,57,28,3,12,5,5.14251704833333,NaN,3396.0122175,1,NaN,NaN,NaN,0.352641077055007,83.1887866260152,66.7515329332276,NaN
3,2,2,SyncDelta,29,1158_1.7Hz.avi,dar23_zero_1.7Hz.wav,dar,2,4.08021700000018,1,3,14,29,43,56,2,13,4,5.14251704833333,NaN,3402.2955966,1,NaN,NaN,NaN,0.535478345847082,126.320490589291,67.0053654730732,NaN
3,3,2,SyncDelta,14,1416_1.7Hz.avi,dar1_zero_1.7Hz.wav,dar,3,5.62617650000038,1,3,56,29,14,43,3,11,1,5.14251704833333,NaN,3409.3455993,1,NaN,NaN,NaN,1.21208155440853,285.93263905921,384.475830492868,NaN
3,4,2,SyncDelta,23,1330_1.7Hz.avi,acoustic47_zero_1.7Hz.wav,acoustic,1,5.01906610000015,0,3,47,23,4,5,2,1,2,5.14251704833333,NaN,3416.4956552,1,NaN,NaN,NaN,0.220478446158765,52.0113384586671,172.65047484088,NaN
3,5,2,SyncDelta,5,1381_1.7Hz.avi,acoustic1_zero_1.7Hz.wav,acoustic,3,4.86663610000005,0,3,23,5,4,47,2,3,3,5.14251704833333,NaN,3424.2123223,1,NaN,NaN,NaN,0.183892062243042,43.3805320012907,224.915729899178,NaN
3,6,2,SyncDelta,12,1077_1.7Hz.avi,choir18_zero_1.7Hz.wav,choir,4,6.36526589999994,1,3,68,52,11,12,4,15,3,5.14251704833333,NaN,3431.3957101,1,NaN,NaN,NaN,0.176109788667632,41.5446769689255,184.630848484139,NaN
3,7,2,SyncDelta,85,1383_1.7Hz.avi,orch23_zero_1.7Hz.wav,orch,3,4.60269430000017,1,3,30,28,85,57,3,4,4,5.14251704833333,NaN,3440.895748,1,NaN,NaN,NaN,0.737348149989884,173.942010473804,174.939983690892,NaN
3,8,2,SyncDelta,28,1148_1.7Hz.avi,orch19_zero_1.7Hz.wav,orch,1,10.1232955,0,3,85,57,28,30,3,10,3,5.14251704833333,NaN,3448.0291418,1,NaN,NaN,NaN,1.03408161247675,243.942070880177,436.621186713799,NaN
3,9,2,SyncDelta,30,1016_1.7Hz.avi,orch14_zero_1.7Hz.wav,orch,4,4.65145230000007,0,3,85,28,30,57,3,16,1,5.14251704833333,NaN,3461.4124668,1,NaN,NaN,NaN,0.610573347743646,144.035562643926,121.414946002397,NaN
3,10,2,SyncDelta,11,1448_1.7Hz.avi,choir36_zero_1.7Hz.wav,choir,3,3.58856359999982,1,3,68,12,11,52,3,14,4,5.14251704833333,NaN,3468.512517,1,NaN,NaN,NaN,1.10337713182115,260.289032558668,487.568089787649,NaN
3,11,2,SyncDelta,43,1141_1.7Hz.avi,dar13_zero_1.7Hz.wav,dar,4,6.45075339999994,1,3,29,14,56,43,4,7,5,5.14251704833333,NaN,3474.4792146,1,NaN,NaN,NaN,1.69173497192027,399.083909288568,220.030188596802,NaN
3,12,2,SyncDelta,47,1292_1.7Hz.avi,acoustic28_zero_1.7Hz.wav,acoustic,2,4.31046529999958,0,3,23,4,5,47,4,2,1,5.14251704833333,NaN,3482.9625804,1,NaN,NaN,NaN,0.990934764066664,233.763636773897,162.61565289417,NaN
3,13,2,SyncDelta,4,1167_1.7Hz.avi,acoustic37_zero_1.7Hz.wav,acoustic,1,4.74338799999987,0,3,23,47,4,5,3,5,3,5.14251704833333,NaN,3489.4125773,1,NaN,NaN,NaN,-0.011423244705957,-2.69476793332385,83.2269283712573,NaN
3,14,2,SyncDelta,56,1063_1.7Hz.avi,dar16_zero_1.7Hz.wav,dar,4,4.27205550000008,1,3,29,43,14,56,4,9,3,5.14251704833333,NaN,3495.6459633,1,NaN,NaN,NaN,-0.00966354369717019,-2.27965069012555,291.597966027664,NaN
3,15,2,SyncDelta,68,1023_1.7Hz.avi,choir3_zero_1.7Hz.wav,choir,4,10.6823592000001,1,3,52,12,11,68,4,8,2,5.14251704833333,NaN,3501.7959883,1,NaN,NaN,NaN,0.455908701443075,107.549840767347,177.896202694584,NaN
3,16,2,SyncDelta,52,1387_1.7Hz.avi,choir2_zero_1.7Hz.wav,choir,1,3.75631049999993,0,3,12,68,11,52,4,6,1,5.14251704833333,NaN,3514.6127012,1,NaN,NaN,NaN,0.297133747849511,70.0944885821839,183.789053258281,NaN
3,1,3,SyncTheta,48,1021_4Hz.avi,willow12_zero_4Hz.wav,willow,3,11.3058259000004,0,3,55,48,27,66,2,11,3,5.06791046166667,NaN,3692.696717,1,NaN,NaN,NaN,0.610574380111694,144.035806181763,172.210406156124,-0.541890578833225
3,2,3,SyncTheta,50,1049_4Hz.avi,synth43_zero_4Hz.wav,synth,2,5.04439189999994,1,3,61,50,71,70,2,16,3,5.06791046166667,NaN,3706.9801287,1,NaN,NaN,NaN,2.07293781923511,489.010478794699,180.193152323732,0.913831514056557
3,3,3,SyncTheta,70,1093_4Hz.avi,synth6_zero_4Hz.wav,synth,2,9.78166439999995,0,3,50,71,61,70,4,9,2,5.06791046166667,NaN,3714.8301565,1,NaN,NaN,NaN,1.72130581625438,406.059734907652,261.712138552347,-0.998482250175942
3,4,3,SyncTheta,65,1013_4Hz.avi,ep22_zero_4Hz.wav,ep,3,3.79490849999956,0,3,65,41,24,86,1,1,4,5.06791046166667,NaN,3727.3468888,1,NaN,NaN,NaN,0.801857093499054,189.159808643746,326.037645022482,0.506901014415204
3,5,3,SyncTheta,86,1278_4Hz.avi,ep35_zero_4Hz.wav,ep,1,7.27149210000016,1,3,86,24,41,65,1,13,4,5.06791046166667,NaN,3733.7468615,1,NaN,NaN,NaN,0.0610873716299285,14.4106420230606,233.50921803956,2.19970145295876
3,6,3,SyncTheta,67,1310_4Hz.avi,guitar21_zero_4Hz.wav,guitar,2,4.52195949999987,1,3,15,67,73,59,2,10,1,5.06791046166667,NaN,3742.563588,1,NaN,NaN,NaN,0.332730929569532,78.4919401193806,80.923080107432,-0.496877619852891
3,7,3,SyncTheta,27,1202_4Hz.avi,willow16_zero_4Hz.wav,willow,1,4.43987650000008,0,3,66,55,27,48,3,5,1,5.06791046166667,NaN,3748.8802848,1,NaN,NaN,NaN,1.05948742570168,249.935356725033,797.036782752266,2.22800412053522
3,8,3,SyncTheta,66,1215_4Hz.avi,willow18_zero_4Hz.wav,willow,3,7.74965879999991,1,3,48,55,66,27,3,8,5,5.06791046166667,NaN,3756.5302797,1,NaN,NaN,NaN,0.0787543276677139,18.5783148546895,32.9582014130716,-0.383218003410591
3,9,3,SyncTheta,55,1044_4Hz.avi,willow4_zero_4Hz.wav,willow,2,5.13279320000038,1,3,27,55,48,66,2,15,4,5.06791046166667,NaN,3767.4136553,1,NaN,NaN,NaN,0.387622587364628,91.4409999566502,141.98508516344,0.529021549287411
3,10,3,SyncTheta,15,1422_4Hz.avi,guitar37_zero_4Hz.wav,guitar,4,5.5413453000001,1,3,73,67,59,15,4,7,4,5.06791046166667,NaN,3774.3970638,1,NaN,NaN,NaN,2.6226780450495,618.695377465413,250.058769636648,-0.602404570102915
3,11,3,SyncTheta,61,1207_4Hz.avi,synth46_zero_4Hz.wav,synth,2,7.78904659999989,0,3,71,70,50,61,4,2,3,5.06791046166667,NaN,3781.9804008,1,NaN,NaN,NaN,0.395741006228734,93.3561523837778,209.293993050143,1.77711620103798
3,12,3,SyncTheta,24,1217_4Hz.avi,ep44_zero_4Hz.wav,ep,1,3.29917130000013,0,3,86,24,65,41,2,12,5,5.06791046166667,NaN,3791.1804474,1,NaN,NaN,NaN,0.728782409593919,171.921333937637,190.34836063603,-1.1279614198291
3,13,3,SyncTheta,41,1132_4Hz.avi,ep10_zero_4Hz.wav,ep,1,3.85533869999972,0,3,24,86,65,41,4,14,2,5.06791046166667,NaN,3796.6137987,1,NaN,NaN,NaN,0.787999823964325,185.890849031409,222.52695657861,1.38928565071332
3,14,3,SyncTheta,71,1076_4Hz.avi,synth21_zero_4Hz.wav,synth,4,5.33606660000032,0,3,71,70,50,61,1,3,2,5.06791046166667,NaN,3802.7804628,1,NaN,NaN,NaN,1.10470076277611,260.601279940634,218.278768872966,-0.0608691347306036
3,15,3,SyncTheta,73,1369_4Hz.avi,guitar19_zero_4Hz.wav,guitar,1,5.74095480000005,0,3,59,67,73,15,3,6,3,5.06791046166667,NaN,3810.0304877,1,NaN,NaN,NaN,0.874377575280458,206.267545879893,224.501974686461,-1.82700021894116
3,16,3,SyncTheta,59,1346_4Hz.avi,guitar33_zero_4Hz.wav,guitar,3,4.79188069999964,0,3,67,59,73,15,2,4,4,5.06791046166667,NaN,3817.7305178,1,NaN,NaN,NaN,1.28034268912132,302.035587183957,218.189744209554,0.638216291030864
3,1,4,AsyncTheta,153,1157_4Hz.avi,willow1_oneeighty_4Hz.wav,willow,3,6.69670510000014,0,3,171,153,130,156,2,10,4,4.96447104833333,NaN,4001.731258,1,NaN,NaN,NaN,0.84766080812703,199.96500319081,273.842067281832,2.30219377738088
3,2,4,AsyncTheta,135,1154_4Hz.avi,synth38_oneeighty_4Hz.wav,synth,3,7.87086230000023,0,3,140,184,128,135,4,15,3,4.96447104833333,NaN,4010.0812876,1,NaN,NaN,NaN,0.804603962637288,189.807800966531,208.545319066245,2.82524109761175
3,3,4,AsyncTheta,140,1270_4Hz.avi,synth17_oneeighty_4Hz.wav,synth,1,5.41031729999986,0,3,135,128,184,140,4,9,5,4.96447104833333,NaN,4020.6146392,1,NaN,NaN,NaN,1.43781801136539,339.184353545572,163.748805826256,1.74243281877988
3,4,4,AsyncTheta,173,1348_4Hz.avi,ep31_oneeighty_4Hz.wav,ep,4,7.27581340000006,0,3,180,173,166,138,2,2,2,4.96447104833333,NaN,4027.6979968,1,NaN,NaN,NaN,0.384104203808007,90.6110057273774,179.305100596262,1.32047448141637
3,5,4,AsyncTheta,166,1227_4Hz.avi,ep5_oneeighty_4Hz.wav,ep,1,5.22099609999987,0,3,173,180,166,138,3,12,4,4.96447104833333,NaN,4036.7313895,1,NaN,NaN,NaN,0.249558304830593,58.8713395066676,82.72763213972,0.937552407621907
3,6,4,AsyncTheta,168,1204_4Hz.avi,guitar36_oneeighty_4Hz.wav,guitar,1,4.43757159999996,1,3,168,170,151,183,1,16,4,4.96447104833333,NaN,4043.8647236,1,NaN,NaN,NaN,1.14006709106747,268.94427265874,414.526552497778,-2.87054205972502
3,7,4,AsyncTheta,130,1081_4Hz.avi,willow5_oneeighty_4Hz.wav,willow,3,6.91176739999992,0,3,153,156,171,130,4,7,4,4.96447104833333,NaN,4050.8814467,1,NaN,NaN,NaN,0.870371918288078,205.322602801739,264.997721608105,-0.933096763797019
3,8,4,AsyncTheta,156,1060_4Hz.avi,willow7_oneeighty_4Hz.wav,willow,4,4.10471450000023,1,3,153,130,171,156,4,8,5,4.96447104833333,NaN,4060.5481283,1,NaN,NaN,NaN,1.20390930775746,284.004788541655,289.559280625151,1.43765758148898
3,9,4,AsyncTheta,171,1280_4Hz.avi,willow19_oneeighty_4Hz.wav,willow,4,3.35493619999988,0,3,156,171,130,153,2,11,3,4.96447104833333,NaN,4066.5481453,1,NaN,NaN,NaN,0.616670233077917,145.47383097441,124.722577848624,-0.903746697233076
3,10,4,AsyncTheta,151,1259_4Hz.avi,guitar43_oneeighty_4Hz.wav,guitar,1,6.94490850000011,0,3,170,183,168,151,4,13,1,4.96447104833333,NaN,4071.7814963,1,NaN,NaN,NaN,2.00477820033004,472.931478466782,212.076095494683,-1.81088413093307
3,11,4,AsyncTheta,128,1269_4Hz.avi,synth14_oneeighty_4Hz.wav,synth,4,5.02023229999986,0,3,128,184,135,140,1,3,4,4.96447104833333,NaN,4080.5482289,1,NaN,NaN,NaN,0.317454162301803,74.8881179464688,125.481353956244,-3.14155116248935
3,12,4,AsyncTheta,180,1006_4Hz.avi,ep4_oneeighty_4Hz.wav,ep,4,6.35509679999996,0,3,166,138,180,173,3,6,3,4.96447104833333,NaN,4087.6149154,1,NaN,NaN,NaN,1.10363656717589,260.350233915438,243.881549897645,0.600077943981637
3,13,4,AsyncTheta,138,1149_4Hz.avi,ep2_oneeighty_4Hz.wav,ep,1,4.00372300000026,0,3,166,180,138,173,3,14,4,4.96447104833333,NaN,4095.6649283,1,NaN,NaN,NaN,0.0680981831916029,16.064507511307,166.563779584826,2.0597448144189
3,14,4,AsyncTheta,184,1052_4Hz.avi,synth40_oneeighty_4Hz.wav,synth,1,4.83004989999972,1,3,184,135,128,140,1,4,3,4.96447104833333,NaN,4102.0649462,1,NaN,NaN,NaN,0.56167631173308,132.500646946362,92.1868538362089,1.48050017226116
3,15,4,AsyncTheta,170,1062_4Hz.avi,guitar3_oneeighty_4Hz.wav,guitar,3,4.01285300000018,0,3,170,183,151,168,1,5,2,4.96447104833333,NaN,4109.0649735,1,NaN,NaN,NaN,1.47731826067613,348.502547100979,287.529425498946,1.42945991531795
3,16,4,AsyncTheta,183,1374_4Hz.avi,guitar16_oneeighty_4Hz.wav,guitar,2,4.58391260000008,0,3,183,151,170,168,1,1,2,4.96447104833333,NaN,4115.881666,1,NaN,NaN,NaN,0.79251383092731,186.955712958233,189.997836683046,-0.393585367842609
3,1,5,SyncTheta,108,1415_4Hz.avi,willow3_zero_4Hz.wav,willow,4,7.42605700000058,0,3,108,92,22,75,1,5,4,4.97529367166667,NaN,4366.1492849,2,NaN,NaN,NaN,0.531028272967505,125.270708849906,116.415607917566,1.66818018000137
3,2,5,SyncTheta,109,1299_4Hz.avi,synth18_zero_4Hz.wav,synth,3,4.20664339999985,1,3,95,89,109,35,3,15,5,4.97529367166667,NaN,4375.3826212,2,NaN,NaN,NaN,1.03203703642979,243.459751004308,273.481028769705,-0.0475100553907644
3,3,5,SyncTheta,89,1393_4Hz.avi,synth41_zero_4Hz.wav,synth,3,3.59113240000079,0,3,89,95,35,109,1,11,2,4.97529367166667,NaN,4382.5659829,2,NaN,NaN,NaN,0.863796849638833,203.771530001368,287.856033980917,-0.0873992240135459
3,4,5,SyncTheta,87,1142_4Hz.avi,ep3_zero_4Hz.wav,ep,2,4.17966960000012,0,3,99,106,87,16,3,1,4,4.97529367166667,NaN,4388.4993299,2,NaN,NaN,NaN,1.26592128945211,298.633548062623,272.879894973744,-2.04288983799614
3,5,5,SyncTheta,99,1173_4Hz.avi,ep6_zero_4Hz.wav,ep,1,3.1671067999996,1,3,99,106,87,16,1,13,4,4.97529367166667,NaN,4394.6494014,2,NaN,NaN,NaN,0.162425642028416,38.3165574190545,94.0754784992209,-0.0541678067042427
3,6,5,SyncTheta,93,1046_4Hz.avi,guitar18_zero_4Hz.wav,guitar,1,4.85520709999946,1,3,93,84,77,7,1,14,1,4.97529367166667,NaN,4399.8660552,2,NaN,NaN,NaN,2.5147215542923,593.22820968821,188.492347033734,-1.84540748092082
3,7,5,SyncTheta,92,1030_4Hz.avi,willow23_zero_4Hz.wav,willow,4,4.77376230000027,0,3,92,75,22,108,1,2,2,4.97529367166667,NaN,4407.9827399,2,NaN,NaN,NaN,0.788962087795982,186.117849133718,160.073096448747,-0.795213648492269
3,8,5,SyncTheta,22,1212_4Hz.avi,willow20_zero_4Hz.wav,willow,1,6.11156180000035,1,3,22,108,75,92,1,4,5,4.97529367166667,NaN,4414.5827813,2,NaN,NaN,NaN,1.01531011835623,239.513835145178,293.372535546813,-2.24399141817346
3,9,5,SyncTheta,75,1040_4Hz.avi,willow17_zero_4Hz.wav,willow,1,5.00596330000008,0,3,108,75,22,92,2,6,3,4.97529367166667,NaN,4423.3494711,2,NaN,NaN,NaN,0.777743193054522,183.471287795427,355.473529013998,3.08136429931778
3,10,5,SyncTheta,84,1294_4Hz.avi,guitar6_zero_4Hz.wav,guitar,1,3.97898220000025,0,3,7,93,84,77,3,12,2,4.97529367166667,NaN,4430.066191,2,NaN,NaN,NaN,1.59976471370321,377.387928064108,161.184272093482,1.31452729531942
3,11,5,SyncTheta,95,1359_4Hz.avi,synth33_zero_4Hz.wav,synth,3,6.89608189999944,0,3,95,89,35,109,1,3,2,4.97529367166667,NaN,4436.5328593,2,NaN,NaN,NaN,2.69920324220398,636.747835649703,410.44375768967,-0.310420818548695
