ParticipantID,TrialNumber,BlockNumber,Synchrony,ClipID,VideoFile,SoundFile,SoundCategory,SyncRating,Accuracy,RT,ConditionID,BlockDuration,ExperimentDuration,Condition
14,1,1,,40,1418_4Hz.avi,willow20_oneeighty_4Hz.wav,willow,1,0,2.5719823,14,3.19124643,7.66852672333333,AsyncTheta
14,2,1,,2,1371_4Hz.avi,ep7_oneeighty_4Hz.wav,ep,1,0,1.61644620000004,14,3.19124643,7.66852672333333,AsyncTheta
14,3,1,,23,1011_4Hz.avi,orch38_oneeighty_4Hz.wav,orch,2,1,1.04827439999997,14,3.19124643,7.66852672333333,AsyncTheta
14,4,1,,7,1124_4Hz.avi,dar24_oneeighty_4Hz.wav,dar,2,1,2.35850920000001,14,3.19124643,7.66852672333333,AsyncTheta
14,5,1,,28,1436_4Hz.avi,guitar31_oneeighty_4Hz.wav,guitar,2,1,0.749117500000011,14,3.19124643,7.66852672333333,AsyncTheta
14,6,1,,26,1377_4Hz.avi,acoustic48_oneeighty_4Hz.wav,acoustic,1,0,3.06808819999998,14,3.19124643,7.66852672333333,AsyncTheta
14,7,1,,44,1257_4Hz.avi,orch14_oneeighty_4Hz.wav,orch,1,0,1.8997425,14,3.19124643,7.66852672333333,AsyncTheta
14,8,1,,45,1228_4Hz.avi,orch31_oneeighty_4Hz.wav,orch,2,1,2.23043339999998,14,3.19124643,7.66852672333333,AsyncTheta
14,9,1,,14,1151_4Hz.avi,dar8_oneeighty_4Hz.wav,dar,2,1,1.57006250000001,14,3.19124643,7.66852672333333,AsyncTheta
14,10,1,,32,1326_4Hz.avi,acoustic32_oneeighty_4Hz.wav,acoustic,2,1,0.722375599999964,14,3.19124643,7.66852672333333,AsyncTheta
14,11,1,,6,1226_4Hz.avi,choir4_oneeighty_4Hz.wav,choir,1,0,1.30396260000003,14,3.19124643,7.66852672333333,AsyncTheta
14,12,1,,33,1219_4Hz.avi,acoustic25_oneeighty_4Hz.wav,acoustic,2,1,0.528364699999997,14,3.19124643,7.66852672333333,AsyncTheta
14,1,2,,25,1402_4Hz.avi,choir38_zero_4Hz.wav,choir,2,0,1.56864040000005,14,1.39230065166667,7.66852672333333,SyncTheta
14,2,2,,8,1376_4Hz.avi,willow15_zero_4Hz.wav,willow,1,1,1.42039269999998,14,1.39230065166667,7.66852672333333,SyncTheta
14,3,2,,9,1424_4Hz.avi,orch1_zero_4Hz.wav,orch,1,1,1.16772090000001,14,1.39230065166667,7.66852672333333,SyncTheta
14,4,2,,48,1028_4Hz.avi,acoustic28_zero_4Hz.wav,acoustic,2,0,1.5848479,14,1.39230065166667,7.66852672333333,SyncTheta
14,5,2,,37,1235_4Hz.avi,dar23_zero_4Hz.wav,dar,1,1,0.695204800000056,14,1.39230065166667,7.66852672333333,SyncTheta
14,6,2,,4,1010_4Hz.avi,ep15_zero_4Hz.wav,ep,1,1,2.41434629999998,14,1.39230065166667,7.66852672333333,SyncTheta
14,7,2,,5,1332_4Hz.avi,acoustic44_zero_4Hz.wav,acoustic,1,1,1.54884560000005,14,1.39230065166667,7.66852672333333,SyncTheta
14,8,2,,35,1211_4Hz.avi,choir33_zero_4Hz.wav,choir,1,1,0.886435999999946,14,1.39230065166667,7.66852672333333,SyncTheta
14,9,2,,30,1282_4Hz.avi,dar1_zero_4Hz.wav,dar,1,1,0.798614500000042,14,1.39230065166667,7.66852672333333,SyncTheta
14,10,2,,39,1088_4Hz.avi,acoustic47_zero_4Hz.wav,acoustic,2,0,0.884605699999952,14,1.39230065166667,7.66852672333333,SyncTheta
14,11,2,,21,1291_4Hz.avi,acoustic11_zero_4Hz.wav,acoustic,1,1,2.75356270000003,14,1.39230065166667,7.66852672333333,SyncTheta
14,12,2,,19,1188_4Hz.avi,choir7_zero_4Hz.wav,choir,1,1,3.5693875,14,1.39230065166667,7.66852672333333,SyncTheta
14,1,3,,47,1261_4Hz.avi,willow10_oneeighty_4Hz.wav,willow,1,0,1.01223370000002,14,1.31874498333333,7.66852672333333,AsyncTheta
14,2,3,,15,1302_4Hz.avi,synth25_oneeighty_4Hz.wav,synth,1,0,2.51640099999997,14,1.31874498333333,7.66852672333333,AsyncTheta
14,3,3,,38,1068_4Hz.avi,orch29_oneeighty_4Hz.wav,orch,2,1,1.03476769999997,14,1.31874498333333,7.66852672333333,AsyncTheta
14,4,3,,11,1001_4Hz.avi,dar22_oneeighty_4Hz.wav,dar,1,0,1.64885029999999,14,1.31874498333333,7.66852672333333,AsyncTheta
14,5,3,,41,1092_4Hz.avi,guitar37_oneeighty_4Hz.wav,guitar,2,1,1.66405380000003,14,1.31874498333333,7.66852672333333,AsyncTheta
14,6,3,,10,1100_4Hz.avi,ep10_oneeighty_4Hz.wav,ep,2,1,3.9139098,14,1.31874498333333,7.66852672333333,AsyncTheta
14,7,3,,22,1351_4Hz.avi,acoustic1_oneeighty_4Hz.wav,acoustic,1,0,0.883632499999976,14,1.31874498333333,7.66852672333333,AsyncTheta
14,8,3,,16,1285_4Hz.avi,acoustic37_oneeighty_4Hz.wav,acoustic,2,1,1.64542840000001,14,1.31874498333333,7.66852672333333,AsyncTheta
14,9,3,,18,1446_4Hz.avi,synth5_oneeighty_4Hz.wav,synth,1,0,1.97782460000002,14,1.31874498333333,7.66852672333333,AsyncTheta
14,10,3,,29,1281_4Hz.avi,ep34_oneeighty_4Hz.wav,ep,2,1,1.50029749999999,14,1.31874498333333,7.66852672333333,AsyncTheta
14,11,3,,24,1251_4Hz.avi,willow16_oneeighty_4Hz.wav,willow,1,0,1.1756651,14,1.31874498333333,7.66852672333333,AsyncTheta
14,12,3,,36,1307_4Hz.avi,dar13_oneeighty_4Hz.wav,dar,2,1,0.966828399999997,14,1.31874498333333,7.66852672333333,AsyncTheta
14,1,4,,12,1102_4Hz.avi,dar2_zero_4Hz.wav,dar,1,1,1.03416499999997,14,1.287268135,7.66852672333333,SyncTheta
14,2,4,,17,1043_4Hz.avi,ep8_zero_4Hz.wav,ep,2,0,1.43156700000003,14,1.287268135,7.66852672333333,SyncTheta
14,3,4,,34,1409_4Hz.avi,willow12_zero_4Hz.wav,willow,1,1,1.37038560000002,14,1.287268135,7.66852672333333,SyncTheta
14,4,4,,13,1075_4Hz.avi,orch19_zero_4Hz.wav,orch,2,0,1.21857899999998,14,1.287268135,7.66852672333333,SyncTheta
14,5,4,,20,1245_4Hz.avi,guitar48_zero_4Hz.wav,guitar,1,1,1.8917103,14,1.287268135,7.66852672333333,SyncTheta
14,6,4,,43,1438_4Hz.avi,choir18_zero_4Hz.wav,choir,1,1,1.50524849999999,14,1.287268135,7.66852672333333,SyncTheta
14,7,4,,31,1246_4Hz.avi,guitar47_zero_4Hz.wav,guitar,2,0,0.893726100000094,14,1.287268135,7.66852672333333,SyncTheta
14,8,4,,1,1267_4Hz.avi,dar6_zero_4Hz.wav,dar,1,1,1.06082219999996,14,1.287268135,7.66852672333333,SyncTheta
14,9,4,,27,1120_4Hz.avi,choir36_zero_4Hz.wav,choir,2,0,1.44370929999991,14,1.287268135,7.66852672333333,SyncTheta
14,10,4,,46,1400_4Hz.avi,ep44_zero_4Hz.wav,ep,2,0,1.00932869999997,14,1.287268135,7.66852672333333,SyncTheta
14,11,4,,42,1056_4Hz.avi,acoustic12_zero_4Hz.wav,acoustic,1,1,1.21803799999998,14,1.287268135,7.66852672333333,SyncTheta
14,12,4,,3,1194_4Hz.avi,willow13_zero_4Hz.wav,willow,2,0,1.26808059999996,14,1.287268135,7.66852672333333,SyncTheta
