ParticipantID,TrialNumber,BlockNumber,Synchrony,ClipID,VideoFile,SoundFile,SoundCategory,SyncRating,Accuracy,RT,ConditionID,BlockDuration,ExperimentDuration,Condition
27,1,1,,24,1251_4Hz.avi,synth5_zero_4Hz.wav,synth,1,1,1.87808920000009,27,3.00869225666667,6.39573619,SyncTheta
27,2,2,,45,1228_4Hz.avi,acoustic32_zero_4Hz.wav,acoustic,2,0,0.944553199999973,27,3.00869225666667,6.39573619,SyncTheta
27,3,3,,46,1400_4Hz.avi,acoustic25_zero_4Hz.wav,acoustic,1,1,1.76503489999993,27,3.00869225666667,6.39573619,SyncTheta
27,4,,,7,1124_4Hz.avi,acoustic44_zero_4Hz.wav,acoustic,2,0,0.704905899999972,27,3.00869225666667,6.39573619,SyncTheta
27,5,,,34,1409_4Hz.avi,dar11_zero_4Hz.wav,dar,1,1,0.672766200000069,27,3.00869225666667,6.39573619,SyncTheta
27,6,,,63,1095_4Hz.avi,acoustic28_zero_4Hz.wav,acoustic,2,0,0.805896200000007,27,3.00869225666667,6.39573619,SyncTheta
27,7,,,62,1386_4Hz.avi,willow10_zero_4Hz.wav,willow,1,1,0.569052399999919,27,3.00869225666667,6.39573619,SyncTheta
27,8,,,60,1069_4Hz.avi,orch31_zero_4Hz.wav,orch,1,1,0.3881212,27,3.00869225666667,6.39573619,SyncTheta
27,9,,,12,1102_4Hz.avi,choir19_zero_4Hz.wav,choir,2,0,0.815982599999984,27,3.00869225666667,6.39573619,SyncTheta
27,10,,,55,1145_4Hz.avi,guitar37_zero_4Hz.wav,guitar,1,1,0.684686599999964,27,3.00869225666667,6.39573619,SyncTheta
27,11,,,41,1092_4Hz.avi,ep34_zero_4Hz.wav,ep,2,0,0.723855599999979,27,3.00869225666667,6.39573619,SyncTheta
27,12,,,43,1438_4Hz.avi,acoustic20_zero_4Hz.wav,acoustic,2,0,0.592420699999934,27,3.00869225666667,6.39573619,SyncTheta
27,13,,,36,1307_4Hz.avi,willow16_zero_4Hz.wav,willow,1,1,0.663710899999955,27,3.00869225666667,6.39573619,SyncTheta
27,14,,,10,1100_4Hz.avi,willow15_zero_4Hz.wav,willow,1,1,0.180758800000035,27,3.00869225666667,6.39573619,SyncTheta
27,15,,,47,1261_4Hz.avi,willow12_zero_4Hz.wav,willow,1,1,0.32990940000002,27,3.00869225666667,6.39573619,SyncTheta
27,16,,,40,1418_4Hz.avi,guitar31_zero_4Hz.wav,guitar,2,0,0.63957199999993,27,3.00869225666667,6.39573619,SyncTheta
27,1,,,28,1436_4Hz.avi,guitar48_oneeighty_4Hz.wav,guitar,1,0,1.71892079999998,27,1.50604035,6.39573619,AsyncTheta
27,2,,,29,1281_4Hz.avi,acoustic11_oneeighty_4Hz.wav,acoustic,1,0,6.05324080000003,27,1.50604035,6.39573619,AsyncTheta
27,3,,,57,1079_4Hz.avi,dar21_oneeighty_4Hz.wav,dar,1,0,0.619476899999995,27,1.50604035,6.39573619,AsyncTheta
27,4,,,16,1285_4Hz.avi,dar2_oneeighty_4Hz.wav,dar,1,0,0.498633799999993,27,1.50604035,6.39573619,AsyncTheta
27,5,,,42,1056_4Hz.avi,dar1_oneeighty_4Hz.wav,dar,1,0,0.41716909999991,27,1.50604035,6.39573619,AsyncTheta
27,6,,,38,1068_4Hz.avi,acoustic48_oneeighty_4Hz.wav,acoustic,1,0,3.24008089999995,27,1.50604035,6.39573619,AsyncTheta
27,7,,,49,1264_4Hz.avi,dar13_oneeighty_4Hz.wav,dar,2,1,0.61467360000006,27,1.50604035,6.39573619,AsyncTheta
27,8,,,64,1002_4Hz.avi,synth47_oneeighty_4Hz.wav,synth,1,0,0.359702499999912,27,1.50604035,6.39573619,AsyncTheta
27,9,,,17,1043_4Hz.avi,orch19_oneeighty_4Hz.wav,orch,2,1,0.514143799999943,27,1.50604035,6.39573619,AsyncTheta
27,10,,,53,1260_4Hz.avi,acoustic47_oneeighty_4Hz.wav,acoustic,2,1,0.355168299999946,27,1.50604035,6.39573619,AsyncTheta
27,11,,,9,1424_4Hz.avi,dar24_oneeighty_4Hz.wav,dar,1,0,0.516431699999998,27,1.50604035,6.39573619,AsyncTheta
27,12,,,56,1372_4Hz.avi,acoustic12_oneeighty_4Hz.wav,acoustic,2,1,0.348574099999951,27,1.50604035,6.39573619,AsyncTheta
27,13,,,51,1053_4Hz.avi,orch29_oneeighty_4Hz.wav,orch,1,0,0.406052999999929,27,1.50604035,6.39573619,AsyncTheta
27,14,,,32,1326_4Hz.avi,acoustic29_oneeighty_4Hz.wav,acoustic,2,1,0.725001199999951,27,1.50604035,6.39573619,AsyncTheta
27,15,,,37,1235_4Hz.avi,choir38_oneeighty_4Hz.wav,choir,2,1,0.3005177,27,1.50604035,6.39573619,AsyncTheta
27,16,,,21,1291_4Hz.avi,orch7_oneeighty_4Hz.wav,orch,1,0,0.527206200000023,27,1.50604035,6.39573619,AsyncTheta
27,1,,,48,1028_4Hz.avi,choir33_zero_4Hz.wav,choir,1,1,0.359224200000085,27,1.38352446666667,6.39573619,SyncTheta
27,2,,,19,1188_4Hz.avi,dar8_zero_4Hz.wav,dar,2,0,1.00112950000005,27,1.38352446666667,6.39573619,SyncTheta
27,3,,,14,1151_4Hz.avi,synth12_zero_4Hz.wav,synth,1,1,0.484998000000019,27,1.38352446666667,6.39573619,SyncTheta
27,4,,,23,1011_4Hz.avi,ep8_zero_4Hz.wav,ep,1,1,1.60103169999991,27,1.38352446666667,6.39573619,SyncTheta
27,5,,,5,1332_4Hz.avi,willow13_zero_4Hz.wav,willow,2,0,0.613927099999955,27,1.38352446666667,6.39573619,SyncTheta
27,6,,,50,1143_4Hz.avi,dar23_zero_4Hz.wav,dar,2,0,0.561832799999934,27,1.38352446666667,6.39573619,SyncTheta
27,7,,,58,1397_4Hz.avi,choir18_zero_4Hz.wav,choir,2,0,1.04432020000002,27,1.38352446666667,6.39573619,SyncTheta
27,8,,,33,1219_4Hz.avi,acoustic1_zero_4Hz.wav,acoustic,2,0,0.474574000000075,27,1.38352446666667,6.39573619,SyncTheta
27,9,,,3,1194_4Hz.avi,ep7_zero_4Hz.wav,ep,1,1,0.588043599999992,27,1.38352446666667,6.39573619,SyncTheta
27,10,,,31,1246_4Hz.avi,guitar33_zero_4Hz.wav,guitar,2,0,0.295381700000007,27,1.38352446666667,6.39573619,SyncTheta
27,11,,,39,1088_4Hz.avi,choir36_zero_4Hz.wav,choir,1,1,0.539442199999939,27,1.38352446666667,6.39573619,SyncTheta
27,12,,,22,1351_4Hz.avi,acoustic37_zero_4Hz.wav,acoustic,2,0,0.429644600000074,27,1.38352446666667,6.39573619,SyncTheta
27,13,,,25,1402_4Hz.avi,choir2_zero_4Hz.wav,choir,2,0,0.751966200000084,27,1.38352446666667,6.39573619,SyncTheta
27,14,,,6,1226_4Hz.avi,ep15_zero_4Hz.wav,ep,1,1,0.581997300000012,27,1.38352446666667,6.39573619,SyncTheta
27,15,,,2,1371_4Hz.avi,synth43_zero_4Hz.wav,synth,1,1,0.542709899999977,27,1.38352446666667,6.39573619,SyncTheta
27,16,,,13,1075_4Hz.avi,ep10_zero_4Hz.wav,ep,2,0,0.481559500000003,27,1.38352446666667,6.39573619,SyncTheta
