ParticipantID,TrialNumber,BlockNumber,Condition,ClipID,VideoFile,SoundFile,SoundCategory,Response,RT,Accuracy,ConditionID,Frame1,Frame2,Frame3,Frame4,CorrectKey,EncodingPosition,Rating,BlockDuration,ExperimentDuration,MemoryTestOnset,RunNumber,Age,Handedness,Sex
24,1,1,SyncDelta,180,1006_1.7Hz.avi,ep4_zero_1.7Hz.wav,ep,4,7.31229259999986,0,24,180,132,173,166,1,10,2,5.67561618166667,NaN,1255.1782585,1,NaN,NaN,NaN
24,2,1,SyncDelta,132,1356_1.7Hz.avi,ep30_zero_1.7Hz.wav,ep,3,5.87004000000002,0,24,180,132,166,173,2,11,4,5.67561618166667,NaN,1265.1282867,1,NaN,NaN,NaN
24,3,1,SyncDelta,140,1270_1.7Hz.avi,synth17_zero_1.7Hz.wav,synth,2,7.45613189999995,0,24,140,127,135,184,1,5,3,5.67561618166667,NaN,1272.6449989,1,NaN,NaN,NaN
24,4,1,SyncDelta,120,1365_1.7Hz.avi,willow21_zero_1.7Hz.wav,willow,1,4.54516669999998,0,24,171,153,120,156,3,7,2,5.67561618166667,NaN,1281.9116886,1,NaN,NaN,NaN
24,5,1,SyncDelta,184,1052_1.7Hz.avi,synth40_zero_1.7Hz.wav,synth,3,2.97458789999996,1,24,140,127,184,135,3,13,2,5.67561618166667,NaN,1288.0449821,1,NaN,NaN,NaN
24,6,1,SyncDelta,156,1060_1.7Hz.avi,willow7_zero_1.7Hz.wav,willow,2,6.06927210000003,1,24,171,156,120,153,2,1,5,5.67561618166667,NaN,1292.6950169,1,NaN,NaN,NaN
24,7,1,SyncDelta,171,1280_1.7Hz.avi,willow19_zero_1.7Hz.wav,willow,1,3.35830549999991,1,24,171,156,153,120,1,15,1,5.67561618166667,NaN,1300.9283748,1,NaN,NaN,NaN
24,8,1,SyncDelta,170,1062_1.7Hz.avi,guitar3_zero_1.7Hz.wav,guitar,3,3.62213350000002,0,24,168,170,146,183,2,14,2,5.67561618166667,NaN,1305.7617227,1,NaN,NaN,NaN
24,9,1,SyncDelta,127,1411_1.7Hz.avi,synth28_zero_1.7Hz.wav,synth,2,7.73366200000009,0,24,184,140,127,135,3,3,4,5.67561618166667,NaN,1311.778411,1,NaN,NaN,NaN
24,10,1,SyncDelta,153,1157_1.7Hz.avi,willow1_zero_1.7Hz.wav,willow,4,6.30459289999999,1,24,156,171,120,153,4,6,5,5.67561618166667,NaN,1322.195114,1,NaN,NaN,NaN
24,11,1,SyncDelta,166,1227_1.7Hz.avi,ep5_zero_1.7Hz.wav,ep,3,5.54649619999986,1,24,180,173,166,132,3,8,2,5.67561618166667,NaN,1330.5450977,1,NaN,NaN,NaN
24,12,1,SyncDelta,135,1154_1.7Hz.avi,synth38_zero_1.7Hz.wav,synth,3,7.82048589999999,0,24,127,184,140,135,4,4,5,5.67561618166667,NaN,1338.5117895,1,NaN,NaN,NaN
24,13,1,SyncDelta,146,1005_1.7Hz.avi,guitar14_zero_1.7Hz.wav,guitar,1,6.74234709999996,0,24,183,168,146,170,3,16,1,5.67561618166667,NaN,1349.6118216,1,NaN,NaN,NaN
24,14,1,SyncDelta,168,1204_1.7Hz.avi,guitar36_zero_1.7Hz.wav,guitar,3,5.88312489999998,1,24,146,170,168,183,3,2,2,5.67561618166667,NaN,1359.2118744,1,NaN,NaN,NaN
24,15,1,SyncDelta,173,1348_1.7Hz.avi,ep31_zero_1.7Hz.wav,ep,3,8.0268724,1,24,180,132,173,166,3,9,1,5.67561618166667,NaN,1366.8285374,1,NaN,NaN,NaN
24,16,1,SyncDelta,183,1374_1.7Hz.avi,guitar16_zero_1.7Hz.wav,guitar,4,9.28920479999988,0,24,183,170,146,168,1,12,1,5.67561618166667,NaN,1377.6119492,1,NaN,NaN,NaN
24,1,2,NoFlicker,5,1381_half_amp.avi,acoustic1_half_amp.wav,acoustic,3,11.2811182999999,0,24,23,5,4,58,2,7,1,5.48933435166667,NaN,1567.6791264,1,NaN,NaN,NaN
24,2,2,NoFlicker,4,1167_half_amp.avi,acoustic37_half_amp.wav,acoustic,2,9.13417140000001,0,24,4,23,58,5,1,9,5,5.48933435166667,NaN,1580.9458607,1,NaN,NaN,NaN
24,3,2,NoFlicker,43,1141_half_amp.avi,dar13_half_amp.wav,dar,2,15.0536592000001,0,24,64,14,43,29,3,5,3,5.48933435166667,NaN,1591.8125883,1,NaN,NaN,NaN
24,4,2,NoFlicker,91,1340_half_amp.avi,orch46_half_amp.wav,orch,4,5.80641980000019,1,24,28,57,30,91,4,13,1,5.48933435166667,NaN,1608.6626095,1,NaN,NaN,NaN
24,5,2,NoFlicker,64,1098_half_amp.avi,dar11_half_amp.wav,dar,1,3.5864947,1,24,64,43,29,14,1,12,1,5.48933435166667,NaN,1616.1792717,1,NaN,NaN,NaN
24,6,2,NoFlicker,28,1148_half_amp.avi,orch19_half_amp.wav,orch,4,3.42286879999983,1,24,57,91,30,28,4,6,1,5.48933435166667,NaN,1622.2626227,1,NaN,NaN,NaN
24,7,2,NoFlicker,30,1016_half_amp.avi,orch14_half_amp.wav,orch,2,3.72561509999991,1,24,91,30,28,57,2,16,4,5.48933435166667,NaN,1627.695975,1,NaN,NaN,NaN
24,8,2,NoFlicker,69,1216_half_amp.avi,choir32_half_amp.wav,choir,3,9.71688339999992,1,24,52,11,69,12,3,14,1,5.48933435166667,NaN,1634.6459989,1,NaN,NaN,NaN
24,9,2,NoFlicker,14,1416_half_amp.avi,dar1_half_amp.wav,dar,1,3.84705469999994,0,24,29,43,14,64,3,2,1,5.48933435166667,NaN,1645.7293606,1,NaN,NaN,NaN
24,10,2,NoFlicker,57,1309_half_amp.avi,orch7_half_amp.wav,orch,2,5.58698800000002,1,24,91,57,30,28,2,8,5,5.48933435166667,NaN,1651.4960699,1,NaN,NaN,NaN
24,11,2,NoFlicker,58,1323_half_amp.avi,acoustic29_half_amp.wav,acoustic,3,7.41532869999992,0,24,23,5,4,58,4,1,5,5.48933435166667,NaN,1659.1627736,1,NaN,NaN,NaN
24,12,2,NoFlicker,29,1158_half_amp.avi,dar23_half_amp.wav,dar,4,11.3579723999999,0,24,64,29,43,14,2,3,4,5.48933435166667,NaN,1669.5628282,1,NaN,NaN,NaN
24,13,2,NoFlicker,11,1448_half_amp.avi,choir36_half_amp.wav,choir,2,10.6038621999999,0,24,12,52,11,69,3,15,1,5.48933435166667,NaN,1683.379478,1,NaN,NaN,NaN
24,14,2,NoFlicker,12,1077_half_amp.avi,choir18_half_amp.wav,choir,2,6.13875529999996,1,24,11,12,69,52,2,10,4,5.48933435166667,NaN,1696.0462006,1,NaN,NaN,NaN
24,15,2,NoFlicker,23,1330_half_amp.avi,acoustic47_half_amp.wav,acoustic,1,4.63431549999996,0,24,5,4,58,23,4,4,4,5.48933435166667,NaN,1705.4962696,1,NaN,NaN,NaN
24,16,2,NoFlicker,52,1387_half_amp.avi,choir2_half_amp.wav,choir,4,3.65304049999986,0,24,12,11,52,69,3,11,2,5.48933435166667,NaN,1712.6962587,1,NaN,NaN,NaN
24,1,3,SyncTheta,107,1265_4Hz.avi,acoustic16_zero_4Hz.wav,acoustic,4,11.4638883,1,24,79,175,133,107,4,13,2,5.32861209333333,NaN,1893.7968145,1,NaN,NaN,NaN
24,2,3,SyncTheta,175,1103_4Hz.avi,acoustic10_zero_4Hz.wav,acoustic,4,6.06823609999992,1,24,79,133,107,175,4,16,2,5.32861209333333,NaN,1908.0301294,1,NaN,NaN,NaN
24,3,3,SyncTheta,187,1164_4Hz.avi,dar12_zero_4Hz.wav,dar,1,12.0560204000001,0,24,82,147,126,187,4,4,2,5.32861209333333,NaN,1915.9801587,1,NaN,NaN,NaN
24,4,3,SyncTheta,158,1206_4Hz.avi,orch6_zero_4Hz.wav,orch,2,7.09812599999987,0,24,110,188,143,158,4,7,4,5.32861209333333,NaN,1930.9969226,1,NaN,NaN,NaN
24,5,3,SyncTheta,147,1304_4Hz.avi,dar10_zero_4Hz.wav,dar,3,3.50428269999998,1,24,82,187,147,126,3,11,2,5.32861209333333,NaN,1939.7302265,1,NaN,NaN,NaN
24,6,3,SyncTheta,143,1127_4Hz.avi,orch11_zero_4Hz.wav,orch,3,3.86320460000002,1,24,158,188,143,110,3,3,2,5.32861209333333,NaN,1946.5635958,1,NaN,NaN,NaN
24,7,3,SyncTheta,110,1443_4Hz.avi,orch3_zero_4Hz.wav,orch,3,5.2596845999999,1,24,143,188,110,158,3,9,4,5.32861209333333,NaN,1952.746965,1,NaN,NaN,NaN
24,8,3,SyncTheta,121,1354_4Hz.avi,choir22_zero_4Hz.wav,choir,4,7.68076970000016,1,24,76,139,181,121,4,14,4,5.32861209333333,NaN,1961.1136482,1,NaN,NaN,NaN
24,9,3,SyncTheta,126,1298_4Hz.avi,dar9_zero_4Hz.wav,dar,1,5.69567519999987,1,24,126,147,82,187,1,1,3,5.32861209333333,NaN,1971.0470092,1,NaN,NaN,NaN
24,10,3,SyncTheta,188,1036_4Hz.avi,orch26_zero_4Hz.wav,orch,4,6.20575320000012,1,24,143,110,158,188,4,6,3,5.32861209333333,NaN,1979.7303436,1,NaN,NaN,NaN
24,11,3,SyncTheta,133,1341_4Hz.avi,acoustic14_zero_4Hz.wav,acoustic,1,8.24000260000003,0,24,175,133,107,79,2,8,4,5.32861209333333,NaN,1988.5637313,1,NaN,NaN,NaN
24,12,3,SyncTheta,82,1449_4Hz.avi,dar17_zero_4Hz.wav,dar,3,7.76991279999993,1,24,187,126,82,147,3,2,3,5.32861209333333,NaN,1998.5637588,1,NaN,NaN,NaN
24,13,3,SyncTheta,76,1293_4Hz.avi,choir23_zero_4Hz.wav,choir,1,6.78713930000004,0,24,139,76,181,121,2,15,4,5.32861209333333,NaN,2008.3971234,1,NaN,NaN,NaN
24,14,3,SyncTheta,181,1168_4Hz.avi,choir1_zero_4Hz.wav,choir,2,6.35199590000002,1,24,121,181,76,139,2,5,4,5.32861209333333,NaN,2016.9471533,1,NaN,NaN,NaN
24,15,3,SyncTheta,79,1071_4Hz.avi,acoustic17_zero_4Hz.wav,acoustic,4,4.82186999999999,1,24,175,133,107,79,4,12,5,5.32861209333333,NaN,2025.8638435,1,NaN,NaN,NaN
24,16,3,SyncTheta,139,1192_4Hz.avi,choir5_zero_4Hz.wav,choir,4,3.89933199999996,0,24,121,139,76,181,2,10,2,5.32861209333333,NaN,2032.3472085,1,NaN,NaN,NaN
24,1,4,AsyncTheta,101,1295_4Hz.avi,ep40_oneeighty_4Hz.wav,ep,1,5.11438300000009,1,24,101,87,16,26,1,10,5,4.8527734,NaN,2208.1144097,1,NaN,NaN,NaN
24,2,4,AsyncTheta,16,1442_4Hz.avi,ep34_oneeighty_4Hz.wav,ep,2,9.09782399999995,1,24,87,16,26,101,2,15,3,4.8527734,NaN,2216.2477104,1,NaN,NaN,NaN
24,3,4,AsyncTheta,89,1393_4Hz.avi,synth41_oneeighty_4Hz.wav,synth,3,4.95788589999984,1,24,35,54,89,100,3,8,4,4.8527734,NaN,2227.6144098,1,NaN,NaN,NaN
24,4,4,AsyncTheta,22,1212_4Hz.avi,willow20_oneeighty_4Hz.wav,willow,1,6.12236470000016,1,24,22,37,94,75,1,14,3,4.8527734,NaN,2233.997787,1,NaN,NaN,NaN
24,5,4,AsyncTheta,54,1181_4Hz.avi,synth12_oneeighty_4Hz.wav,synth,4,4.66784610000013,0,24,35,89,54,100,3,9,3,4.8527734,NaN,2243.2811745,1,NaN,NaN,NaN
24,6,4,AsyncTheta,37,1237_4Hz.avi,willow15_oneeighty_4Hz.wav,willow,2,3.67131760000029,1,24,94,37,75,22,2,2,5,4.8527734,NaN,2250.1812047,1,NaN,NaN,NaN
24,7,4,AsyncTheta,94,1109_4Hz.avi,willow6_oneeighty_4Hz.wav,willow,3,4.15205409999999,1,24,37,75,94,22,3,16,4,4.8527734,NaN,2255.8311836,1,NaN,NaN,NaN
24,8,4,AsyncTheta,7,1017_4Hz.avi,guitar47_oneeighty_4Hz.wav,guitar,1,3.47790480000003,1,24,7,53,77,90,1,12,4,4.8527734,NaN,2261.7145486,1,NaN,NaN,NaN
24,9,4,AsyncTheta,35,1039_4Hz.avi,synth5_oneeighty_4Hz.wav,synth,2,6.24796209999977,1,24,100,35,54,89,2,1,4,4.8527734,NaN,2266.8478589,1,NaN,NaN,NaN
24,10,4,AsyncTheta,75,1040_4Hz.avi,willow17_oneeighty_4Hz.wav,willow,3,3.79643009999972,1,24,22,94,75,37,3,7,5,4.8527734,NaN,2276.3979115,1,NaN,NaN,NaN
24,11,4,AsyncTheta,87,1142_4Hz.avi,ep3_oneeighty_4Hz.wav,ep,2,7.22206619999997,0,24,101,26,87,16,3,3,4,4.8527734,NaN,2282.2312629,1,NaN,NaN,NaN
24,12,4,AsyncTheta,100,1107_4Hz.avi,synth23_oneeighty_4Hz.wav,synth,2,5.51793029999999,1,24,89,100,54,35,2,4,2,4.8527734,NaN,2291.0312623,1,NaN,NaN,NaN
24,13,4,AsyncTheta,90,1273_4Hz.avi,guitar23_oneeighty_4Hz.wav,guitar,1,4.53697820000025,1,24,90,7,77,53,1,13,2,4.8527734,NaN,2298.131336,1,NaN,NaN,NaN
24,14,4,AsyncTheta,77,1008_4Hz.avi,guitar42_oneeighty_4Hz.wav,guitar,3,7.90114549999998,1,24,90,7,77,53,3,5,3,4.8527734,NaN,2305.5146412,1,NaN,NaN,NaN
24,15,4,AsyncTheta,26,1190_4Hz.avi,ep7_oneeighty_4Hz.wav,ep,3,5.07095919999983,0,24,16,26,87,101,2,6,4,4.8527734,NaN,2315.3813645,1,NaN,NaN,NaN
24,16,4,AsyncTheta,53,1197_4Hz.avi,guitar46_oneeighty_4Hz.wav,guitar,3,4.96766249999973,1,24,77,7,53,90,3,11,4,4.8527734,NaN,2322.5313798,1,NaN,NaN,NaN
24,1,5,NoFlicker,47,1292_half_amp.avi,acoustic28_half_amp.wav,acoustic,2,8.84367490000022,0,24,47,21,44,60,1,9,2,6.19806034,NaN,2611.548802,2,NaN,NaN,NaN
24,2,5,NoFlicker,21,1112_half_amp.avi,acoustic32_half_amp.wav,acoustic,4,6.06748089999974,0,24,47,44,21,60,3,12,5,6.19806034,NaN,2621.8988075,2,NaN,NaN,NaN
24,3,5,NoFlicker,49,1221_half_amp.avi,dar21_half_amp.wav,dar,2,6.16091589999996,1,24,40,49,80,56,2,8,4,6.19806034,NaN,2630.2155251,2,NaN,NaN,NaN
24,4,5,NoFlicker,102,1012_half_amp.avi,orch18_half_amp.wav,orch,4,7.34743600000002,1,24,85,42,81,102,4,13,4,6.19806034,NaN,2639.0822115,2,NaN,NaN,NaN
24,5,5,NoFlicker,40,1239_half_amp.avi,dar6_half_amp.wav,dar,4,4.11313150000024,1,24,56,49,80,40,4,11,4,6.19806034,NaN,2649.6322492,2,NaN,NaN,NaN
24,6,5,NoFlicker,81,1444_half_amp.avi,orch4_half_amp.wav,orch,4,8.27732759999981,1,24,102,85,42,81,4,4,4,6.19806034,NaN,2655.7323095,2,NaN,NaN,NaN
24,7,5,NoFlicker,85,1383_half_amp.avi,orch23_half_amp.wav,orch,3,11.7851191,1,24,42,81,85,102,3,14,4,6.19806034,NaN,2665.5322652,2,NaN,NaN,NaN
24,8,5,NoFlicker,63,1128_half_amp.avi,choir26_half_amp.wav,choir,1,8.70086330000004,0,24,68,38,72,63,4,15,2,6.19806034,NaN,2679.1156563,2,NaN,NaN,NaN
24,9,5,NoFlicker,80,1082_half_amp.avi,dar15_half_amp.wav,dar,3,7.01819350000005,0,24,80,40,56,49,1,3,1,6.19806034,NaN,2689.2489986,2,NaN,NaN,NaN
24,10,5,NoFlicker,42,1339_half_amp.avi,orch31_half_amp.wav,orch,4,5.18993490000003,1,24,102,85,81,42,4,10,2,6.19806034,NaN,2698.3990515,2,NaN,NaN,NaN
24,11,5,NoFlicker,44,1254_half_amp.avi,acoustic48_half_amp.wav,acoustic,2,4.8509097000001,0,24,21,47,44,60,3,5,4,6.19806034,NaN,2705.3657672,2,NaN,NaN,NaN
24,12,5,NoFlicker,56,1063_half_amp.avi,dar16_half_amp.wav,dar,1,12.9627494000001,1,24,56,40,49,80,1,6,4,6.19806034,NaN,2712.9990973,2,NaN,NaN,NaN
24,13,5,NoFlicker,72,1097_half_amp.avi,choir29_half_amp.wav,choir,4,7.19098380000014,1,24,38,63,68,72,4,16,5,6.19806034,NaN,2728.4324684,2,NaN,NaN,NaN
24,14,5,NoFlicker,38,1184_half_amp.avi,choir33_half_amp.wav,choir,2,5.21583039999996,1,24,63,38,68,72,2,1,2,6.19806034,NaN,2737.1158359,2,NaN,NaN,NaN
24,15,5,NoFlicker,60,1249_half_amp.avi,acoustic20_half_amp.wav,acoustic,3,7.44364929999983,1,24,47,44,60,21,3,7,4,6.19806034,NaN,2745.2825001,2,NaN,NaN,NaN
24,16,5,NoFlicker,68,1023_half_amp.avi,choir3_half_amp.wav,choir,3,5.46558659999982,0,24,72,68,63,38,2,2,2,6.19806034,NaN,2754.2158794,2,NaN,NaN,NaN
24,1,6,SyncTheta,190,1427_4Hz.avi,acoustic46_zero_4Hz.wav,acoustic,1,7.97141689999989,0,24,105,104,190,96,3,13,2,5.1513949,NaN,2945.8497567,2,NaN,NaN,NaN
24,2,6,SyncTheta,96,1027_4Hz.avi,acoustic40_zero_4Hz.wav,acoustic,4,5.59374509999998,1,24,190,104,105,96,4,15,4,5.1513949,NaN,2955.7164887,2,NaN,NaN,NaN
24,3,6,SyncTheta,191,1314_4Hz.avi,dar19_zero_4Hz.wav,dar,3,3.46360909999976,1,24,114,116,191,122,3,9,4,5.1513949,NaN,2964.2332077,2,NaN,NaN,NaN
24,4,6,SyncTheta,141,1401_4Hz.avi,orch12_zero_4Hz.wav,orch,3,5.58665380000002,0,24,141,142,137,192,1,12,4,5.1513949,NaN,2969.7498213,2,NaN,NaN,NaN
24,5,6,SyncTheta,122,1289_4Hz.avi,dar3_zero_4Hz.wav,dar,2,4.88931820000016,1,24,191,122,116,114,2,10,4,5.1513949,NaN,2978.6331799,2,NaN,NaN,NaN
24,6,6,SyncTheta,137,1303_4Hz.avi,orch10_zero_4Hz.wav,orch,2,5.32135579999976,0,24,192,142,137,141,3,5,2,5.1513949,NaN,2986.0499116,2,NaN,NaN,NaN
24,7,6,SyncTheta,192,1231_4Hz.avi,orch32_zero_4Hz.wav,orch,1,6.15091170000005,0,24,141,192,137,142,2,16,4,5.1513949,NaN,2993.8499003,2,NaN,NaN,NaN
24,8,6,SyncTheta,98,1014_4Hz.avi,choir41_zero_4Hz.wav,choir,4,7.5995554000001,1,24,88,97,182,98,4,11,5,5.1513949,NaN,3002.0499231,2,NaN,NaN,NaN
24,9,6,SyncTheta,114,1322_4Hz.avi,dar14_zero_4Hz.wav,dar,1,3.26507089999996,1,24,114,116,191,122,1,3,4,5.1513949,NaN,3011.9833089,2,NaN,NaN,NaN
24,10,6,SyncTheta,142,1155_4Hz.avi,orch9_zero_4Hz.wav,orch,1,4.34820259999969,1,24,142,141,192,137,1,7,5,5.1513949,NaN,3017.2499971,2,NaN,NaN,NaN
24,11,6,SyncTheta,105,1003_4Hz.avi,acoustic6_zero_4Hz.wav,acoustic,2,7.5630028999999,1,24,96,105,104,190,2,4,4,5.1513949,NaN,3024.9499706,2,NaN,NaN,NaN
24,12,6,SyncTheta,116,1420_4Hz.avi,dar18_zero_4Hz.wav,dar,2,5.70977990000029,1,24,122,116,114,191,2,6,4,5.1513949,NaN,3034.916715,2,NaN,NaN,NaN
24,13,6,SyncTheta,88,1191_4Hz.avi,choir20_zero_4Hz.wav,choir,4,5.87223690000019,0,24,88,98,97,182,1,14,3,5.1513949,NaN,3042.966728,2,NaN,NaN,NaN
24,14,6,SyncTheta,182,1277_4Hz.avi,choir39_zero_4Hz.wav,choir,1,4.77409769999986,0,24,88,98,182,97,3,1,1,5.1513949,NaN,3051.1334516,2,NaN,NaN,NaN
24,15,6,SyncTheta,104,1111_4Hz.avi,acoustic31_zero_4Hz.wav,acoustic,3,4.68374220000032,0,24,96,104,190,105,2,8,3,5.1513949,NaN,3059.0500881,2,NaN,NaN,NaN
24,16,6,SyncTheta,97,1368_4Hz.avi,choir30_zero_4Hz.wav,choir,3,3.2922093000002,1,24,88,182,97,98,3,2,4,5.1513949,NaN,3065.5668007,2,NaN,NaN,NaN
24,1,7,AsyncTheta,6,1007_4Hz.avi,ep8_oneeighty_4Hz.wav,ep,1,5.49011139999993,1,24,6,25,99,41,1,7,4,4.94316299,NaN,3242.3006176,2,NaN,NaN,NaN
24,2,7,AsyncTheta,25,1094_4Hz.avi,ep15_oneeighty_4Hz.wav,ep,4,4.1417449999999,1,24,41,99,6,25,4,11,3,4.94316299,NaN,3249.3673128,2,NaN,NaN,NaN
24,3,7,AsyncTheta,95,1359_4Hz.avi,synth33_oneeighty_4Hz.wav,synth,1,3.76637890000029,1,24,95,8,51,61,1,14,2,4.94316299,NaN,3255.9840492,2,NaN,NaN,NaN
24,4,7,AsyncTheta,18,1101_4Hz.avi,willow13_oneeighty_4Hz.wav,willow,2,4.53625120000015,0,24,32,48,92,18,4,9,4,4.94316299,NaN,3262.8507074,2,NaN,NaN,NaN
24,5,7,AsyncTheta,61,1207_4Hz.avi,synth46_oneeighty_4Hz.wav,synth,2,4.47714670000005,1,24,8,61,95,51,2,16,2,4.94316299,NaN,3270.4506985,2,NaN,NaN,NaN
24,6,7,AsyncTheta,48,1021_4Hz.avi,willow12_oneeighty_4Hz.wav,willow,4,7.21001429999978,0,24,18,48,92,32,2,2,2,4.94316299,NaN,3277.667437,2,NaN,NaN,NaN
24,7,7,AsyncTheta,32,1360_4Hz.avi,willow10_oneeighty_4Hz.wav,willow,4,5.08292970000002,0,24,32,48,92,18,1,15,4,4.94316299,NaN,3287.650779,2,NaN,NaN,NaN
24,8,7,AsyncTheta,59,1346_4Hz.avi,guitar33_oneeighty_4Hz.wav,guitar,3,4.00820750000003,1,24,84,3,59,46,3,8,5,4.94316299,NaN,3295.634135,2,NaN,NaN,NaN
24,9,7,AsyncTheta,51,1331_4Hz.avi,synth47_oneeighty_4Hz.wav,synth,4,6.56793379999999,1,24,95,8,61,51,4,10,2,4.94316299,NaN,3301.9341283,2,NaN,NaN,NaN
24,10,7,AsyncTheta,92,1030_4Hz.avi,willow23_oneeighty_4Hz.wav,willow,4,5.63333809999995,1,24,32,18,48,92,4,4,2,4.94316299,NaN,3309.9508777,2,NaN,NaN,NaN
24,11,7,AsyncTheta,41,1132_4Hz.avi,ep10_oneeighty_4Hz.wav,ep,3,6.46371110000018,0,24,41,6,25,99,1,3,4,4.94316299,NaN,3318.9342133,2,NaN,NaN,NaN
24,12,7,AsyncTheta,8,1252_4Hz.avi,synth25_oneeighty_4Hz.wav,synth,4,3.24998939999978,1,24,51,95,61,8,4,13,4,4.94316299,NaN,3328.0009012,2,NaN,NaN,NaN
24,13,7,AsyncTheta,84,1294_4Hz.avi,guitar6_oneeighty_4Hz.wav,guitar,2,8.10820709999962,1,24,59,84,3,46,2,12,4,4.94316299,NaN,3334.1175833,2,NaN,NaN,NaN
24,14,7,AsyncTheta,3,1156_4Hz.avi,guitar31_oneeighty_4Hz.wav,guitar,2,4.60414660000015,1,24,59,3,84,46,2,1,4,4.94316299,NaN,3345.2342782,2,NaN,NaN,NaN
24,15,7,AsyncTheta,99,1173_4Hz.avi,ep6_oneeighty_4Hz.wav,ep,1,4.41818069999999,0,24,41,6,25,99,4,5,4,4.94316299,NaN,3351.3009381,2,NaN,NaN,NaN
24,16,7,AsyncTheta,46,1210_4Hz.avi,guitar48_oneeighty_4Hz.wav,guitar,3,6.6415920999998,0,24,59,46,84,3,2,6,1,4.94316299,NaN,3358.9343312,2,NaN,NaN,NaN
24,1,8,SyncDelta,189,1051_1.7Hz.avi,ep14_zero_1.7Hz.wav,ep,1,6.95298679999996,0,24,150,123,144,189,4,14,4,4.88037748666667,NaN,3529.2848162,2,NaN,NaN,NaN
24,2,8,SyncDelta,144,1255_1.7Hz.avi,ep28_zero_1.7Hz.wav,ep,2,4.92253239999991,1,24,189,144,150,123,2,16,4,4.88037748666667,NaN,3539.1181791,2,NaN,NaN,NaN
24,3,8,SyncDelta,129,1286_1.7Hz.avi,synth30_zero_1.7Hz.wav,synth,3,4.42267040000024,1,24,186,125,129,131,3,12,5,4.88037748666667,NaN,3545.6681989,2,NaN,NaN,NaN
24,4,8,SyncDelta,119,1189_1.7Hz.avi,willow11_zero_1.7Hz.wav,willow,3,11.5058812000002,0,24,178,119,149,152,2,4,4,4.88037748666667,NaN,3553.1515562,2,NaN,NaN,NaN
24,5,8,SyncDelta,125,1050_1.7Hz.avi,synth36_zero_1.7Hz.wav,synth,3,4.97451359999968,1,24,129,186,125,131,3,13,2,4.88037748666667,NaN,3566.0515994,2,NaN,NaN,NaN
24,6,8,SyncDelta,149,1200_1.7Hz.avi,willow8_zero_1.7Hz.wav,willow,2,6.49758780000002,0,24,149,152,119,178,1,1,4,4.88037748666667,NaN,3573.2516415,2,NaN,NaN,NaN
24,7,8,SyncDelta,178,1057_1.7Hz.avi,willow9_zero_1.7Hz.wav,willow,3,3.58525490000011,1,24,152,149,178,119,3,6,4,4.88037748666667,NaN,3582.3849436,2,NaN,NaN,NaN
24,8,8,SyncDelta,115,1370_1.7Hz.avi,guitar9_zero_1.7Hz.wav,guitar,4,4.97526070000004,0,24,164,161,115,185,3,8,2,4.88037748666667,NaN,3587.984989,2,NaN,NaN,NaN
24,9,8,SyncDelta,131,1366_1.7Hz.avi,synth34_zero_1.7Hz.wav,synth,4,4.23738320000029,1,24,186,129,125,131,4,9,5,4.88037748666667,NaN,3595.0350089,2,NaN,NaN,NaN
24,10,8,SyncDelta,152,1445_1.7Hz.avi,willow2_zero_1.7Hz.wav,willow,3,3.5514005,0,24,178,152,119,149,2,3,3,4.88037748666667,NaN,3601.2517228,2,NaN,NaN,NaN
24,11,8,SyncDelta,123,1067_1.7Hz.avi,ep37_zero_1.7Hz.wav,ep,1,8.5735181,0,24,189,144,123,150,3,2,5,4.88037748666667,NaN,3607.7683608,2,NaN,NaN,NaN
24,12,8,SyncDelta,186,1031_1.7Hz.avi,synth7_zero_1.7Hz.wav,synth,1,3.73029240000005,1,24,186,131,129,125,1,11,3,4.88037748666667,NaN,3619.1183878,2,NaN,NaN,NaN
24,13,8,SyncDelta,164,1087_1.7Hz.avi,guitar17_zero_1.7Hz.wav,guitar,1,10.5291664000001,0,24,185,161,115,164,4,15,5,4.88037748666667,NaN,3624.1850996,2,NaN,NaN,NaN
24,14,8,SyncDelta,185,1131_1.7Hz.avi,guitar45_zero_1.7Hz.wav,guitar,2,5.35492209999984,0,24,161,164,115,185,4,5,2,4.88037748666667,NaN,3637.5684402,2,NaN,NaN,NaN
24,15,8,SyncDelta,150,1394_1.7Hz.avi,ep11_zero_1.7Hz.wav,ep,2,2.31565940000019,0,24,144,123,150,189,3,10,1,4.88037748666667,NaN,3646.0851583,2,NaN,NaN,NaN
24,16,8,SyncDelta,161,1433_1.7Hz.avi,guitar2_zero_1.7Hz.wav,guitar,4,7.02647489999981,1,24,115,164,185,161,4,7,3,4.88037748666667,NaN,3651.4851905,2,NaN,NaN,NaN
24,1,9,SyncDelta,117,1144_1.7Hz.avi,ep39_zero_1.7Hz.wav,ep,3,5.62448419999964,1,24,176,138,117,177,3,7,4,5.21899,20.1357232833333,3899.3858552,3,NaN,NaN,NaN
24,2,9,SyncDelta,177,1283_1.7Hz.avi,ep38_zero_1.7Hz.wav,ep,4,5.59057440000015,1,24,176,138,117,177,4,11,4,5.21899,20.1357232833333,3907.3859017,3,NaN,NaN,NaN
24,3,9,SyncDelta,155,1042_1.7Hz.avi,synth10_zero_1.7Hz.wav,synth,2,5.67555169999969,0,24,155,128,111,163,1,14,4,5.21899,20.1357232833333,3915.569206,3,NaN,NaN,NaN
24,4,9,SyncDelta,157,1225_1.7Hz.avi,willow14_zero_1.7Hz.wav,willow,2,6.07924269999967,0,24,118,167,157,130,3,10,4,5.21899,20.1357232833333,3924.4359496,3,NaN,NaN,NaN
24,5,9,SyncDelta,128,1269_1.7Hz.avi,synth14_zero_1.7Hz.wav,synth,1,4.94817990000001,0,24,155,128,163,111,2,16,3,5.21899,20.1357232833333,3933.6026539,3,NaN,NaN,NaN
24,6,9,SyncDelta,167,1177_1.7Hz.avi,willow24_zero_1.7Hz.wav,willow,2,8.29443760000004,0,24,167,118,157,130,1,2,3,5.21899,20.1357232833333,3940.8359954,3,NaN,NaN,NaN
24,7,9,SyncDelta,130,1081_1.7Hz.avi,willow5_zero_1.7Hz.wav,willow,4,5.26665860000003,1,24,157,167,118,130,4,12,2,5.21899,20.1357232833333,3951.7193192,3,NaN,NaN,NaN
24,8,9,SyncDelta,151,1259_1.7Hz.avi,guitar43_zero_1.7Hz.wav,guitar,4,10.0741140999999,0,24,112,179,151,172,3,13,4,5.21899,20.1357232833333,3959.8360579,3,NaN,NaN,NaN
24,9,9,SyncDelta,111,1390_1.7Hz.avi,synth3_zero_1.7Hz.wav,synth,2,3.60265699999991,1,24,163,111,155,128,2,8,5,5.21899,20.1357232833333,3971.3693649,3,NaN,NaN,NaN
24,10,9,SyncDelta,118,1020_1.7Hz.avi,willow22_zero_1.7Hz.wav,willow,3,6.17401950000021,1,24,167,157,118,130,3,3,2,5.21899,20.1357232833333,3978.269399,3,NaN,NaN,NaN
24,11,9,SyncDelta,138,1149_1.7Hz.avi,ep2_zero_1.7Hz.wav,ep,3,2.5972155999998,0,24,138,177,176,117,1,1,4,5.21899,20.1357232833333,3986.6861002,3,NaN,NaN,NaN
24,12,9,SyncDelta,163,1441_1.7Hz.avi,synth27_zero_1.7Hz.wav,synth,2,4.94850839999981,1,24,155,163,111,128,2,9,3,5.21899,20.1357232833333,3992.9527644,3,NaN,NaN,NaN
24,13,9,SyncDelta,179,1186_1.7Hz.avi,guitar30_zero_1.7Hz.wav,guitar,3,3.77926539999999,0,24,112,179,172,151,2,15,5,5.21899,20.1357232833333,4000.9194487,3,NaN,NaN,NaN
24,14,9,SyncDelta,112,1388_1.7Hz.avi,guitar39_zero_1.7Hz.wav,guitar,1,4.06860869999991,1,24,112,151,179,172,1,4,4,5.21899,20.1357232833333,4007.4194638,3,NaN,NaN,NaN
24,15,9,SyncDelta,176,1405_1.7Hz.avi,ep46_zero_1.7Hz.wav,ep,1,4.61698250000018,0,24,138,117,176,177,3,6,1,5.21899,20.1357232833333,4012.98618,3,NaN,NaN,NaN
24,16,9,SyncDelta,172,1350_1.7Hz.avi,guitar10_zero_1.7Hz.wav,guitar,3,8.95830889999979,0,24,179,151,112,172,4,5,2,5.21899,20.1357232833333,4020.5862283,3,NaN,NaN,NaN
24,1,10,NoFlicker,39,1061_half_amp.avi,acoustic11_half_amp.wav,acoustic,4,14.8586236000001,0,24,9,39,20,1,2,12,4,5.01179679,20.1357232833333,4209.8867849,3,NaN,NaN,NaN
24,2,10,NoFlicker,1,1064_half_amp.avi,acoustic12_half_amp.wav,acoustic,2,5.1196060000002,0,24,1,39,20,9,1,14,4,5.01179679,20.1357232833333,4227.4868349,3,NaN,NaN,NaN
24,3,10,NoFlicker,31,1404_half_amp.avi,dar8_half_amp.wav,dar,2,5.32538509999995,1,24,45,31,34,2,2,5,2,5.01179679,20.1357232833333,4234.9201357,3,NaN,NaN,NaN
24,4,10,NoFlicker,17,1162_half_amp.avi,orch1_half_amp.wav,orch,3,7.03905979999945,0,24,33,36,74,17,4,15,4,5.01179679,20.1357232833333,4242.3535233,3,NaN,NaN,NaN
24,5,10,NoFlicker,2,1431_half_amp.avi,dar24_half_amp.wav,dar,3,3.3932249999998,0,24,34,31,45,2,4,9,4,5.01179679,20.1357232833333,4252.6535218,3,NaN,NaN,NaN
24,6,10,NoFlicker,33,1136_half_amp.avi,orch38_half_amp.wav,orch,2,3.96865340000022,1,24,17,33,36,74,2,2,4,5.01179679,20.1357232833333,4257.7202032,3,NaN,NaN,NaN
24,7,10,NoFlicker,36,1284_half_amp.avi,orch29_half_amp.wav,orch,2,3.9828806000005,0,24,74,17,33,36,4,16,3,5.01179679,20.1357232833333,4264.8202274,3,NaN,NaN,NaN
24,8,10,NoFlicker,62,1058_half_amp.avi,choir19_half_amp.wav,choir,3,7.55463039999995,1,24,10,19,62,13,3,8,1,5.01179679,20.1357232833333,4271.2369644,3,NaN,NaN,NaN
24,9,10,NoFlicker,45,1203_half_amp.avi,dar2_half_amp.wav,dar,3,5.48248890000013,0,24,45,34,2,31,1,1,4,5.01179679,20.1357232833333,4280.4036303,3,NaN,NaN,NaN
24,10,10,NoFlicker,74,1337_half_amp.avi,orch24_half_amp.wav,orch,2,4.62480880000021,1,24,36,74,33,17,2,10,1,5.01179679,20.1357232833333,4288.0369589,3,NaN,NaN,NaN
24,11,10,NoFlicker,20,1236_half_amp.avi,acoustic25_half_amp.wav,acoustic,2,3.60599379999985,1,24,9,20,1,39,2,7,5,5.01179679,20.1357232833333,4294.7703088,3,NaN,NaN,NaN
24,12,10,NoFlicker,34,1319_half_amp.avi,dar22_half_amp.wav,dar,1,3.87868759999947,1,24,34,45,31,2,1,4,5,5.01179679,20.1357232833333,4301.6370285,3,NaN,NaN,NaN
24,13,10,NoFlicker,19,1247_half_amp.avi,choir38_half_amp.wav,choir,2,5.53432260000045,1,24,62,19,13,10,2,13,5,5.01179679,20.1357232833333,4306.9537197,3,NaN,NaN,NaN
24,14,10,NoFlicker,10,1179_half_amp.avi,choir4_half_amp.wav,choir,2,3.54621740000039,1,24,13,10,62,19,2,3,4,5.01179679,20.1357232833333,4314.12037,3,NaN,NaN,NaN
24,15,10,NoFlicker,9,1054_half_amp.avi,acoustic44_half_amp.wav,acoustic,4,4.14359609999974,1,24,1,39,20,9,4,11,4,5.01179679,20.1357232833333,4320.2537462,3,NaN,NaN,NaN
24,16,10,NoFlicker,13,1201_half_amp.avi,choir7_half_amp.wav,choir,3,4.21730550000029,1,24,62,10,13,19,3,6,3,5.01179679,20.1357232833333,4326.1537738,3,NaN,NaN,NaN
24,1,11,AsyncTheta,86,1278_4Hz.avi,ep35_oneeighty_4Hz.wav,ep,4,6.40621609999926,0,24,106,24,86,65,3,7,3,4.56254049166667,20.1357232833333,4494.0375584,3,NaN,NaN,NaN
24,2,11,AsyncTheta,24,1217_4Hz.avi,ep44_oneeighty_4Hz.wav,ep,3,3.30757269999958,1,24,86,65,24,106,3,9,4,4.56254049166667,20.1357232833333,4502.5876079,3,NaN,NaN,NaN
24,3,11,AsyncTheta,50,1049_4Hz.avi,synth43_oneeighty_4Hz.wav,synth,3,3.39811559999998,1,24,109,70,50,71,3,10,1,4.56254049166667,20.1357232833333,4508.2209596,3,NaN,NaN,NaN
24,4,11,AsyncTheta,55,1044_4Hz.avi,willow4_oneeighty_4Hz.wav,willow,4,4.99858390000009,0,24,27,66,55,108,3,14,4,4.56254049166667,20.1357232833333,4513.304305,3,NaN,NaN,NaN
24,5,11,AsyncTheta,109,1299_4Hz.avi,synth18_oneeighty_4Hz.wav,synth,3,5.39792639999996,0,24,109,50,71,70,1,15,4,4.56254049166667,20.1357232833333,4519.8376333,3,NaN,NaN,NaN
24,6,11,AsyncTheta,27,1202_4Hz.avi,willow16_oneeighty_4Hz.wav,willow,1,5.48884449999969,0,24,55,66,27,108,3,8,4,4.56254049166667,20.1357232833333,4527.0376831,3,NaN,NaN,NaN
24,7,11,AsyncTheta,66,1215_4Hz.avi,willow18_oneeighty_4Hz.wav,willow,1,2.39726160000009,1,24,66,108,27,55,1,16,1,4.56254049166667,20.1357232833333,4535.6210407,3,NaN,NaN,NaN
24,8,11,AsyncTheta,73,1369_4Hz.avi,guitar19_oneeighty_4Hz.wav,guitar,1,6.55509520000032,1,24,73,67,93,15,1,12,4,4.56254049166667,20.1357232833333,4540.5043891,3,NaN,NaN,NaN
24,9,11,AsyncTheta,71,1076_4Hz.avi,synth21_oneeighty_4Hz.wav,synth,2,3.92341450000004,0,24,71,109,50,70,1,2,4,4.56254049166667,20.1357232833333,4548.7544124,3,NaN,NaN,NaN
24,10,11,AsyncTheta,108,1415_4Hz.avi,willow3_oneeighty_4Hz.wav,willow,4,3.57462440000018,0,24,66,55,108,27,3,11,2,4.56254049166667,20.1357232833333,4554.8044049,3,NaN,NaN,NaN
24,11,11,AsyncTheta,106,1113_4Hz.avi,ep29_oneeighty_4Hz.wav,ep,2,5.73133179999968,0,24,106,86,24,65,1,4,4,4.56254049166667,20.1357232833333,4560.5211528,3,NaN,NaN,NaN
24,12,11,AsyncTheta,70,1093_4Hz.avi,synth6_oneeighty_4Hz.wav,synth,1,5.32355089999965,0,24,71,109,70,50,3,3,3,4.56254049166667,20.1357232833333,4567.6377745,3,NaN,NaN,NaN
24,13,11,AsyncTheta,67,1310_4Hz.avi,guitar21_oneeighty_4Hz.wav,guitar,1,6.33603940000012,1,24,67,15,73,93,1,13,5,4.56254049166667,20.1357232833333,4574.787796,3,NaN,NaN,NaN
24,14,11,AsyncTheta,15,1422_4Hz.avi,guitar37_oneeighty_4Hz.wav,guitar,2,6.90421100000003,0,24,15,93,67,73,1,1,2,4.56254049166667,20.1357232833333,4583.3878217,3,NaN,NaN,NaN
24,15,11,AsyncTheta,65,1013_4Hz.avi,ep22_oneeighty_4Hz.wav,ep,2,3.61078089999955,0,24,86,106,65,24,3,6,4,4.56254049166667,20.1357232833333,4592.6378733,3,NaN,NaN,NaN
24,16,11,AsyncTheta,93,1046_4Hz.avi,guitar18_oneeighty_4Hz.wav,guitar,3,6.52883030000066,1,24,67,15,93,73,3,5,2,4.56254049166667,20.1357232833333,4597.771193,3,NaN,NaN,NaN
24,1,12,SyncTheta,169,1083_4Hz.avi,acoustic43_zero_4Hz.wav,acoustic,1,6.7776657000004,0,24,113,83,148,169,4,12,5,4.80603424333333,20.1357232833333,4771.6384066,3,NaN,NaN,NaN
24,2,12,SyncTheta,148,1121_4Hz.avi,acoustic26_zero_4Hz.wav,acoustic,1,3.47105060000013,0,24,83,148,169,113,2,16,4,4.80603424333333,20.1357232833333,4780.005063,3,NaN,NaN,NaN
24,3,12,SyncTheta,154,1074_4Hz.avi,dar5_zero_4Hz.wav,dar,4,5.60919109999941,1,24,162,136,103,154,4,9,3,4.80603424333333,20.1357232833333,4786.1884182,3,NaN,NaN,NaN
24,4,12,SyncTheta,145,1352_4Hz.avi,orch39_zero_4Hz.wav,orch,2,4.34114119999958,1,24,134,145,165,174,2,10,2,4.80603424333333,20.1357232833333,4794.8384667,3,NaN,NaN,NaN
24,5,12,SyncTheta,136,1175_4Hz.avi,dar4_zero_4Hz.wav,dar,2,10.3668703999992,0,24,136,103,154,162,1,11,5,4.80603424333333,20.1357232833333,4800.5884824,3,NaN,NaN,NaN
24,6,12,SyncTheta,165,1410_4Hz.avi,orch43_zero_4Hz.wav,orch,1,4.83448040000076,1,24,165,174,134,145,1,1,4,4.80603424333333,20.1357232833333,4813.7884945,3,NaN,NaN,NaN
24,7,12,SyncTheta,134,1026_4Hz.avi,orch16_zero_4Hz.wav,orch,2,3.85731029999988,0,24,165,174,145,134,4,14,2,4.80603424333333,20.1357232833333,4821.1385162,3,NaN,NaN,NaN
24,8,12,SyncTheta,160,1421_4Hz.avi,choir13_zero_4Hz.wav,choir,2,6.36801439999999,1,24,124,160,159,78,2,13,3,4.80603424333333,20.1357232833333,4827.6218748,3,NaN,NaN,NaN
24,9,12,SyncTheta,162,1358_4Hz.avi,dar7_zero_4Hz.wav,dar,4,3.45289400000001,1,24,154,136,103,162,4,7,5,4.80603424333333,20.1357232833333,4835.7552525,3,NaN,NaN,NaN
24,10,12,SyncTheta,174,1119_4Hz.avi,orch45_zero_4Hz.wav,orch,2,5.58950399999958,0,24,165,134,174,145,3,6,2,4.80603424333333,20.1357232833333,4842.2052813,3,NaN,NaN,NaN
24,11,12,SyncTheta,83,1139_4Hz.avi,acoustic27_zero_4Hz.wav,acoustic,1,3.20826260000013,0,24,148,83,169,113,2,3,4,4.80603424333333,20.1357232833333,4849.8385972,3,NaN,NaN,NaN
24,12,12,SyncTheta,103,1084_4Hz.avi,dar20_zero_4Hz.wav,dar,2,3.7601566000003,0,24,103,136,162,154,1,8,4,4.80603424333333,20.1357232833333,4856.1219442,3,NaN,NaN,NaN
24,13,12,SyncTheta,159,1091_4Hz.avi,choir8_zero_4Hz.wav,choir,2,5.45233120000012,0,24,124,78,159,160,3,15,2,4.80603424333333,20.1357232833333,4862.7719699,3,NaN,NaN,NaN
24,14,12,SyncTheta,124,1183_4Hz.avi,choir24_zero_4Hz.wav,choir,3,9.06282629999987,0,24,159,124,78,160,2,2,2,4.80603424333333,20.1357232833333,4870.838685,3,NaN,NaN,NaN
24,15,12,SyncTheta,113,1037_4Hz.avi,acoustic23_zero_4Hz.wav,acoustic,2,4.4561821999996,0,24,113,169,83,148,1,5,3,4.80603424333333,20.1357232833333,4881.6053855,3,NaN,NaN,NaN
24,16,12,SyncTheta,78,1301_4Hz.avi,choir11_zero_4Hz.wav,choir,3,4.6947425999997,0,24,159,78,124,160,2,4,5,4.80603424333333,20.1357232833333,4888.1220672,3,NaN,NaN,NaN
