ParticipantID,TrialNumber,BlockNumber,Condition,ClipID,VideoFile,SoundFile,SoundCategory,Response,RT,Accuracy,ConditionID,Frame1,Frame2,Frame3,Frame4,CorrectKey,EncodingPosition,Rating,BlockDuration,ExperimentDuration,MemoryTestOnset,RunNumber,Age,Handedness,Sex
31,1,1,SyncDelta,80,1082_1.7Hz.avi,dar15_zero_1.7Hz.wav,dar,4,8.53853930000002,0,31,34,56,80,64,3,1,5,5.62990951833333,NaN,822.7811462,1,NaN,NaN,NaN
31,2,1,SyncDelta,68,1023_1.7Hz.avi,choir3_zero_1.7Hz.wav,choir,1,2.96468570000002,1,31,68,69,72,19,1,16,2,5.62990951833333,NaN,833.2978721,1,NaN,NaN,NaN
31,3,1,SyncDelta,64,1098_1.7Hz.avi,dar11_zero_1.7Hz.wav,dar,1,6.40951470000005,1,31,64,56,34,80,1,10,2,5.62990951833333,NaN,839.5312017,1,NaN,NaN,NaN
31,4,1,SyncDelta,20,1236_1.7Hz.avi,acoustic25_zero_1.7Hz.wav,acoustic,2,3.18529350000006,1,31,60,20,58,47,2,7,5,5.62990951833333,NaN,847.6479324,1,NaN,NaN,NaN
31,5,1,SyncDelta,85,1383_1.7Hz.avi,orch23_zero_1.7Hz.wav,orch,1,3.90647619999993,1,31,85,36,91,102,1,2,2,5.62990951833333,NaN,854.1812905,1,NaN,NaN,NaN
31,6,1,SyncDelta,58,1323_1.7Hz.avi,acoustic29_zero_1.7Hz.wav,acoustic,3,10.0373278999999,0,31,20,58,47,60,2,8,4,5.62990951833333,NaN,860.2479583,1,NaN,NaN,NaN
31,7,1,SyncDelta,56,1063_1.7Hz.avi,dar16_zero_1.7Hz.wav,dar,1,5.81427589999998,0,31,64,34,80,56,4,5,5,5.62990951833333,NaN,873.0480258,1,NaN,NaN,NaN
31,8,1,SyncDelta,91,1340_1.7Hz.avi,orch46_zero_1.7Hz.wav,orch,2,5.88971130000004,0,31,85,102,36,91,4,3,3,5.62990951833333,NaN,881.3147008,1,NaN,NaN,NaN
31,9,1,SyncDelta,72,1097_1.7Hz.avi,choir29_zero_1.7Hz.wav,choir,2,9.18365259999996,0,31,19,69,72,68,3,15,5,5.62990951833333,NaN,890.1314611,1,NaN,NaN,NaN
31,10,1,SyncDelta,69,1216_1.7Hz.avi,choir32_zero_1.7Hz.wav,choir,3,6.67654440000001,0,31,68,72,19,69,4,4,3,5.62990951833333,NaN,901.8647902,1,NaN,NaN,NaN
31,11,1,SyncDelta,47,1292_1.7Hz.avi,acoustic28_zero_1.7Hz.wav,acoustic,3,5.51097430000004,0,31,20,60,58,47,4,12,2,5.62990951833333,NaN,910.298186,1,NaN,NaN,NaN
31,12,1,SyncDelta,34,1319_1.7Hz.avi,dar22_zero_1.7Hz.wav,dar,4,6.46270119999997,0,31,34,56,80,64,1,6,4,5.62990951833333,NaN,918.2982189,1,NaN,NaN,NaN
31,13,1,SyncDelta,36,1284_1.7Hz.avi,orch29_zero_1.7Hz.wav,orch,1,4.68741369999998,0,31,85,36,102,91,2,14,2,5.62990951833333,NaN,926.8649021,1,NaN,NaN,NaN
31,14,1,SyncDelta,60,1249_1.7Hz.avi,acoustic20_zero_1.7Hz.wav,acoustic,3,11.6984785,0,31,20,60,58,47,2,9,3,5.62990951833333,NaN,933.9649257,1,NaN,NaN,NaN
31,15,1,SyncDelta,102,1012_1.7Hz.avi,orch18_zero_1.7Hz.wav,orch,1,3.93256369999995,1,31,102,91,85,36,1,11,3,5.62990951833333,NaN,947.0816694,1,NaN,NaN,NaN
31,16,1,SyncDelta,19,1247_1.7Hz.avi,choir38_zero_1.7Hz.wav,choir,1,6.63269820000005,1,31,19,69,68,72,1,13,4,5.62990951833333,NaN,954.1983841,1,NaN,NaN,NaN
31,1,2,AsyncTheta,129,1286_4Hz.avi,synth30_oneeighty_4Hz.wav,synth,1,3.85163949999992,0,31,125,129,111,155,2,4,5,5.65500335166667,NaN,1174.3992742,1,NaN,NaN,NaN
31,2,2,AsyncTheta,112,1388_4Hz.avi,guitar39_oneeighty_4Hz.wav,guitar,4,5.32074839999996,1,31,161,172,115,112,4,14,3,5.65500335166667,NaN,1181.532641,1,NaN,NaN,NaN
31,3,2,AsyncTheta,155,1042_4Hz.avi,synth10_oneeighty_4Hz.wav,synth,3,5.29728599999999,0,31,111,125,129,155,4,10,3,5.65500335166667,NaN,1188.249334,1,NaN,NaN,NaN
31,4,2,AsyncTheta,144,1255_4Hz.avi,ep28_oneeighty_4Hz.wav,ep,4,4.24377980000008,1,31,117,123,176,144,4,1,4,5.65500335166667,NaN,1195.4326669,1,NaN,NaN,NaN
31,5,2,AsyncTheta,118,1020_4Hz.avi,willow22_oneeighty_4Hz.wav,willow,2,2.67928980000011,1,31,119,118,149,157,2,2,2,5.65500335166667,NaN,1201.2660343,1,NaN,NaN,NaN
31,6,2,AsyncTheta,117,1144_4Hz.avi,ep39_oneeighty_4Hz.wav,ep,2,8.00328319999994,0,31,144,123,176,117,4,7,3,5.65500335166667,NaN,1205.7327104,1,NaN,NaN,NaN
31,7,2,AsyncTheta,111,1390_4Hz.avi,synth3_oneeighty_4Hz.wav,synth,1,2.45717809999996,0,31,125,129,155,111,4,5,4,5.65500335166667,NaN,1216.8160906,1,NaN,NaN,NaN
31,8,2,AsyncTheta,119,1189_4Hz.avi,willow11_oneeighty_4Hz.wav,willow,1,2.84506420000002,1,31,119,157,149,118,1,11,2,5.65500335166667,NaN,1221.949454,1,NaN,NaN,NaN
31,9,2,AsyncTheta,172,1350_4Hz.avi,guitar10_oneeighty_4Hz.wav,guitar,4,10.0631609,0,31,161,172,115,112,2,13,2,5.65500335166667,NaN,1226.7828032,1,NaN,NaN,NaN
31,10,2,AsyncTheta,115,1370_4Hz.avi,guitar9_oneeighty_4Hz.wav,guitar,1,6.77978589999998,1,31,115,161,112,172,1,3,5,5.65500335166667,NaN,1239.5495271,1,NaN,NaN,NaN
31,11,2,AsyncTheta,123,1067_4Hz.avi,ep37_oneeighty_4Hz.wav,ep,3,6.11397850000003,0,31,123,117,176,144,1,16,2,5.65500335166667,NaN,1249.3662419,1,NaN,NaN,NaN
31,12,2,AsyncTheta,125,1050_4Hz.avi,synth36_oneeighty_4Hz.wav,synth,4,10.6877025000001,0,31,125,155,129,111,1,8,2,5.65500335166667,NaN,1257.4329659,1,NaN,NaN,NaN
31,13,2,AsyncTheta,157,1225_4Hz.avi,willow14_oneeighty_4Hz.wav,willow,3,8.78626160000022,0,31,119,157,118,149,2,15,1,5.65500335166667,NaN,1271.2163256,1,NaN,NaN,NaN
31,14,2,AsyncTheta,176,1405_4Hz.avi,ep46_oneeighty_4Hz.wav,ep,2,6.15840130000015,0,31,123,117,176,144,3,9,2,5.65500335166667,NaN,1282.1330431,1,NaN,NaN,NaN
31,15,2,AsyncTheta,149,1200_4Hz.avi,willow8_oneeighty_4Hz.wav,willow,1,3.27569889999995,0,31,119,118,149,157,3,12,4,5.65500335166667,NaN,1289.9997348,1,NaN,NaN,NaN
31,16,2,AsyncTheta,161,1433_4Hz.avi,guitar2_oneeighty_4Hz.wav,guitar,3,4.17138360000013,1,31,115,112,161,172,3,6,4,5.65500335166667,NaN,1296.099765,1,NaN,NaN,NaN
31,1,3,NoFlicker,154,1074_half_amp.avi,dar5_half_amp.wav,dar,1,3.61703220000004,1,31,154,147,187,191,1,2,2,4.864609325,NaN,1474.1005579,1,NaN,NaN,NaN
31,2,3,NoFlicker,139,1192_half_amp.avi,choir5_half_amp.wav,choir,3,8.1844607999999,0,31,159,139,181,182,2,14,4,4.864609325,NaN,1479.1339333,1,NaN,NaN,NaN
31,3,3,NoFlicker,147,1304_half_amp.avi,dar10_half_amp.wav,dar,3,3.27243040000008,1,31,154,187,147,191,3,16,3,4.864609325,NaN,1490.2339571,1,NaN,NaN,NaN
31,4,3,NoFlicker,175,1103_half_amp.avi,acoustic10_half_amp.wav,acoustic,1,3.75326519999999,0,31,133,175,190,148,2,7,5,4.864609325,NaN,1496.5672926,1,NaN,NaN,NaN
31,5,3,NoFlicker,188,1036_half_amp.avi,orch26_half_amp.wav,orch,3,3.59224880000011,0,31,165,158,192,188,4,3,4,4.864609325,NaN,1503.1340165,1,NaN,NaN,NaN
31,6,3,NoFlicker,133,1341_half_amp.avi,acoustic14_half_amp.wav,acoustic,3,6.2215733999999,0,31,175,190,148,133,4,8,5,4.864609325,NaN,1508.7840088,1,NaN,NaN,NaN
31,7,3,NoFlicker,187,1164_half_amp.avi,dar12_half_amp.wav,dar,2,7.9799587,1,31,147,187,191,154,2,10,4,4.864609325,NaN,1516.5507404,1,NaN,NaN,NaN
31,8,3,NoFlicker,165,1410_half_amp.avi,orch43_half_amp.wav,orch,2,5.57097759999988,0,31,192,188,165,158,3,4,3,4.864609325,NaN,1526.3341187,1,NaN,NaN,NaN
31,9,3,NoFlicker,159,1091_half_amp.avi,choir8_half_amp.wav,choir,3,4.52592979999986,0,31,159,181,139,182,1,11,2,4.864609325,NaN,1534.5174555,1,NaN,NaN,NaN
31,10,3,NoFlicker,182,1277_half_amp.avi,choir39_half_amp.wav,choir,1,5.86394169999994,1,31,182,181,159,139,1,1,2,4.864609325,NaN,1541.8008189,1,NaN,NaN,NaN
31,11,3,NoFlicker,190,1427_half_amp.avi,acoustic46_half_amp.wav,acoustic,1,6.80772490000004,0,31,175,190,148,133,2,15,4,4.864609325,NaN,1550.9008548,1,NaN,NaN,NaN
31,12,3,NoFlicker,191,1314_half_amp.avi,dar19_half_amp.wav,dar,1,3.86319649999996,1,31,191,147,187,154,1,13,5,4.864609325,NaN,1560.2175692,1,NaN,NaN,NaN
31,13,3,NoFlicker,158,1206_half_amp.avi,orch6_half_amp.wav,orch,2,3.58396170000015,1,31,165,158,192,188,2,6,1,4.864609325,NaN,1566.8009278,1,NaN,NaN,NaN
31,14,3,NoFlicker,148,1121_half_amp.avi,acoustic26_half_amp.wav,acoustic,4,4.78646000000003,0,31,133,148,175,190,2,12,5,4.864609325,NaN,1573.6342756,1,NaN,NaN,NaN
31,15,3,NoFlicker,192,1231_half_amp.avi,orch32_half_amp.wav,orch,4,6.31583689999979,0,31,158,188,192,165,3,5,5,4.864609325,NaN,1579.8176797,1,NaN,NaN,NaN
31,16,3,NoFlicker,181,1168_half_amp.avi,choir1_half_amp.wav,choir,2,3.48104960000001,0,31,181,159,139,182,1,9,4,4.864609325,NaN,1588.7510529,1,NaN,NaN,NaN
31,1,4,SyncTheta,100,1107_4Hz.avi,synth23_zero_4Hz.wav,synth,4,9.60561099999995,0,31,51,100,35,70,2,8,4,4.93004874,NaN,1749.0184073,1,NaN,NaN,NaN
31,2,4,SyncTheta,90,1273_4Hz.avi,guitar23_zero_4Hz.wav,guitar,3,6.14165600000001,1,31,46,67,90,7,3,12,1,4.93004874,NaN,1760.5017909,1,NaN,NaN,NaN
31,3,4,SyncTheta,35,1039_4Hz.avi,synth5_zero_4Hz.wav,synth,4,4.8153256999999,1,31,70,51,100,35,4,16,2,4.93004874,NaN,1769.8351447,1,NaN,NaN,NaN
31,4,4,SyncTheta,101,1295_4Hz.avi,ep40_zero_4Hz.wav,ep,3,4.73159620000001,1,31,16,65,101,25,3,2,5,4.93004874,NaN,1777.0685354,1,NaN,NaN,NaN
31,5,4,SyncTheta,32,1360_4Hz.avi,willow10_zero_4Hz.wav,willow,3,4.22025520000011,1,31,55,94,32,22,3,6,2,4.93004874,NaN,1783.6185228,1,NaN,NaN,NaN
31,6,4,SyncTheta,65,1013_4Hz.avi,ep22_zero_4Hz.wav,ep,1,5.23299190000012,1,31,65,101,16,25,1,4,4,4.93004874,NaN,1790.2852495,1,NaN,NaN,NaN
31,7,4,SyncTheta,70,1093_4Hz.avi,synth6_zero_4Hz.wav,synth,2,9.84808600000019,0,31,35,100,70,51,3,13,4,4.93004874,NaN,1798.6352564,1,NaN,NaN,NaN
31,8,4,SyncTheta,55,1044_4Hz.avi,willow4_zero_4Hz.wav,willow,4,7.79532790000007,1,31,22,32,94,55,4,7,2,4.93004874,NaN,1811.7686726,1,NaN,NaN,NaN
31,9,4,SyncTheta,67,1310_4Hz.avi,guitar21_zero_4Hz.wav,guitar,1,4.20310719999998,1,31,67,46,90,7,1,5,4,4.93004874,NaN,1822.052015,1,NaN,NaN,NaN
31,10,4,SyncTheta,46,1210_4Hz.avi,guitar48_zero_4Hz.wav,guitar,1,12.0736964,0,31,7,67,46,90,3,1,4,4.93004874,NaN,1829.4353805,1,NaN,NaN,NaN
31,11,4,SyncTheta,25,1094_4Hz.avi,ep15_zero_4Hz.wav,ep,4,7.21920150000005,0,31,65,16,25,101,3,10,5,4.93004874,NaN,1842.9854708,1,NaN,NaN,NaN
31,12,4,SyncTheta,51,1331_4Hz.avi,synth47_zero_4Hz.wav,synth,3,4.10239639999986,0,31,35,70,100,51,4,14,4,4.93004874,NaN,1851.935488,1,NaN,NaN,NaN
31,13,4,SyncTheta,94,1109_4Hz.avi,willow6_zero_4Hz.wav,willow,2,6.82809170000019,0,31,22,55,32,94,4,15,5,4.93004874,NaN,1857.4188364,1,NaN,NaN,NaN
31,14,4,SyncTheta,16,1442_4Hz.avi,ep34_zero_4Hz.wav,ep,1,4.42857860000004,0,31,25,101,65,16,4,9,4,4.93004874,NaN,1865.8522036,1,NaN,NaN,NaN
31,15,4,SyncTheta,22,1212_4Hz.avi,willow20_zero_4Hz.wav,willow,3,4.71796339999992,0,31,55,22,94,32,2,11,3,4.93004874,NaN,1872.2355705,1,NaN,NaN,NaN
31,16,4,SyncTheta,7,1017_4Hz.avi,guitar47_zero_4Hz.wav,guitar,1,8.21298520000005,0,31,67,90,7,46,3,3,3,4.93004874,NaN,1879.902267,1,NaN,NaN,NaN
31,1,5,AsyncTheta,140,1270_4Hz.avi,synth17_oneeighty_4Hz.wav,synth,2,7.3363303000001,1,31,184,140,127,135,2,6,4,4.931666435,NaN,2165.7367181,2,NaN,NaN,NaN
31,2,5,AsyncTheta,146,1005_4Hz.avi,guitar14_oneeighty_4Hz.wav,guitar,4,4.62623349999967,0,31,170,146,168,183,2,16,1,4.931666435,NaN,2176.3700677,2,NaN,NaN,NaN
31,3,5,AsyncTheta,127,1411_4Hz.avi,synth28_oneeighty_4Hz.wav,synth,1,4.1964880999999,0,31,140,135,127,184,3,11,3,4.931666435,NaN,2183.3534329,2,NaN,NaN,NaN
31,4,5,AsyncTheta,166,1227_4Hz.avi,ep5_oneeighty_4Hz.wav,ep,3,5.45451000000003,0,31,132,180,173,166,4,5,5,4.931666435,NaN,2190.2867941,2,NaN,NaN,NaN
31,5,5,AsyncTheta,156,1060_4Hz.avi,willow7_oneeighty_4Hz.wav,willow,3,4.48723890000019,0,31,120,156,153,171,2,1,3,4.931666435,NaN,2198.4535045,2,NaN,NaN,NaN
31,6,5,AsyncTheta,132,1356_4Hz.avi,ep30_oneeighty_4Hz.wav,ep,4,4.71132399999988,0,31,132,173,166,180,1,12,5,4.931666435,NaN,2204.8702238,2,NaN,NaN,NaN
31,7,5,AsyncTheta,135,1154_4Hz.avi,synth38_oneeighty_4Hz.wav,synth,1,7.89212270000007,0,31,140,184,135,127,3,8,3,4.931666435,NaN,2211.4702524,2,NaN,NaN,NaN
31,8,5,AsyncTheta,171,1280_4Hz.avi,willow19_oneeighty_4Hz.wav,willow,4,7.47532640000009,1,31,153,156,120,171,4,3,2,4.931666435,NaN,2221.7869332,2,NaN,NaN,NaN
31,9,5,AsyncTheta,170,1062_4Hz.avi,guitar3_oneeighty_4Hz.wav,guitar,1,8.00474140000006,0,31,146,183,168,170,4,15,4,4.931666435,NaN,2230.9369753,2,NaN,NaN,NaN
31,10,5,AsyncTheta,168,1204_4Hz.avi,guitar36_oneeighty_4Hz.wav,guitar,3,6.44765609999968,0,31,183,146,170,168,4,2,5,4.931666435,NaN,2242.1036788,2,NaN,NaN,NaN
31,11,5,AsyncTheta,180,1006_4Hz.avi,ep4_oneeighty_4Hz.wav,ep,1,4.82131879999997,0,31,132,173,166,180,4,14,4,4.931666435,NaN,2251.8537507,2,NaN,NaN,NaN
31,12,5,AsyncTheta,184,1052_4Hz.avi,synth40_oneeighty_4Hz.wav,synth,1,8.43379350000032,0,31,127,184,135,140,2,10,4,4.931666435,NaN,2258.1704253,2,NaN,NaN,NaN
31,13,5,AsyncTheta,153,1157_4Hz.avi,willow1_oneeighty_4Hz.wav,willow,3,4.61221579999983,0,31,120,153,171,156,2,7,5,4.931666435,NaN,2268.737124,2,NaN,NaN,NaN
31,14,5,AsyncTheta,173,1348_4Hz.avi,ep31_oneeighty_4Hz.wav,ep,3,4.3871151999997,1,31,132,166,173,180,3,13,3,4.931666435,NaN,2275.7038489,2,NaN,NaN,NaN
31,15,5,AsyncTheta,120,1365_4Hz.avi,willow21_oneeighty_4Hz.wav,willow,2,5.91608980000001,1,31,153,120,171,156,2,4,5,4.931666435,NaN,2281.6871784,2,NaN,NaN,NaN
31,16,5,AsyncTheta,183,1374_4Hz.avi,guitar16_oneeighty_4Hz.wav,guitar,4,6.36586030000035,1,31,168,170,146,183,4,9,4,4.931666435,NaN,2289.2538775,2,NaN,NaN,NaN
31,1,6,NoFlicker,122,1289_half_amp.avi,dar3_half_amp.wav,dar,4,6.66020160000016,0,31,162,116,122,136,3,3,3,4.72448521833333,NaN,2446.3545437,2,NaN,NaN,NaN
31,2,6,NoFlicker,124,1183_half_amp.avi,choir24_half_amp.wav,choir,3,3.93099310000025,0,31,97,124,160,98,2,12,2,4.72448521833333,NaN,2455.8212832,2,NaN,NaN,NaN
31,3,6,NoFlicker,162,1358_half_amp.avi,dar7_half_amp.wav,dar,1,3.49026589999994,1,31,162,136,116,122,1,15,5,4.72448521833333,NaN,2461.7879407,2,NaN,NaN,NaN
31,4,6,NoFlicker,113,1037_half_amp.avi,acoustic23_half_amp.wav,acoustic,2,9.97523950000004,1,31,105,113,169,104,2,4,5,4.72448521833333,NaN,2467.7713461,2,NaN,NaN,NaN
31,5,6,NoFlicker,142,1155_half_amp.avi,orch9_half_amp.wav,orch,4,3.58236819999956,0,31,174,142,145,141,2,2,5,4.72448521833333,NaN,2479.4213539,2,NaN,NaN,NaN
31,6,6,NoFlicker,169,1083_half_amp.avi,acoustic43_half_amp.wav,acoustic,3,6.78395829999999,0,31,113,169,104,105,2,5,3,4.72448521833333,NaN,2485.2213787,2,NaN,NaN,NaN
31,7,6,NoFlicker,136,1175_half_amp.avi,dar4_half_amp.wav,dar,2,8.04541019999988,1,31,116,136,122,162,2,13,4,4.72448521833333,NaN,2495.2881185,2,NaN,NaN,NaN
31,8,6,NoFlicker,174,1119_half_amp.avi,orch45_half_amp.wav,orch,3,13.7357893999997,0,31,142,141,145,174,4,7,4,4.72448521833333,NaN,2506.3881372,2,NaN,NaN,NaN
31,9,6,NoFlicker,97,1368_half_amp.avi,choir30_half_amp.wav,choir,1,5.58624120000013,0,31,98,160,124,97,4,10,4,4.72448521833333,NaN,2522.154874,2,NaN,NaN,NaN
31,10,6,NoFlicker,98,1014_half_amp.avi,choir41_half_amp.wav,choir,1,4.64278439999998,0,31,124,98,97,160,2,1,3,4.72448521833333,NaN,2529.9049,2,NaN,NaN,NaN
31,11,6,NoFlicker,105,1003_half_amp.avi,acoustic6_half_amp.wav,acoustic,4,4.22204049999982,1,31,113,169,104,105,4,9,5,4.72448521833333,NaN,2537.171631,2,NaN,NaN,NaN
31,12,6,NoFlicker,116,1420_half_amp.avi,dar18_half_amp.wav,dar,4,3.02708480000001,1,31,122,162,136,116,4,14,5,4.72448521833333,NaN,2543.1049869,2,NaN,NaN,NaN
31,13,6,NoFlicker,141,1401_half_amp.avi,orch12_half_amp.wav,orch,2,5.91013699999985,0,31,174,142,141,145,3,16,5,4.72448521833333,NaN,2547.9216944,2,NaN,NaN,NaN
31,14,6,NoFlicker,104,1111_half_amp.avi,acoustic31_half_amp.wav,acoustic,4,6.7954737,0,31,113,105,104,169,3,6,5,4.72448521833333,NaN,2556.4216828,2,NaN,NaN,NaN
31,15,6,NoFlicker,145,1352_half_amp.avi,orch39_half_amp.wav,orch,1,5.16233800000009,0,31,174,142,141,145,4,11,4,4.72448521833333,NaN,2565.488423,2,NaN,NaN,NaN
31,16,6,NoFlicker,160,1421_half_amp.avi,choir13_half_amp.wav,choir,1,5.74930880000011,1,31,160,97,124,98,1,8,3,4.72448521833333,NaN,2573.4217977,2,NaN,NaN,NaN
31,1,7,SyncTheta,54,1181_4Hz.avi,synth12_zero_4Hz.wav,synth,3,6.39039969999976,0,31,50,54,109,71,2,3,4,4.93119442166667,NaN,2764.7392309,2,NaN,NaN,NaN
31,2,7,SyncTheta,15,1422_4Hz.avi,guitar37_zero_4Hz.wav,guitar,4,4.81976050000003,1,31,73,93,53,15,4,13,4,4.93119442166667,NaN,2774.0559662,2,NaN,NaN,NaN
31,3,7,SyncTheta,71,1076_4Hz.avi,synth21_zero_4Hz.wav,synth,2,6.28293059999987,0,31,71,109,54,50,1,12,5,4.93119442166667,NaN,2780.889303,2,NaN,NaN,NaN
31,4,7,SyncTheta,86,1278_4Hz.avi,ep35_zero_4Hz.wav,ep,4,3.96354639999981,1,31,26,106,24,86,4,4,2,4.93119442166667,NaN,2788.7559993,2,NaN,NaN,NaN
31,5,7,SyncTheta,108,1415_4Hz.avi,willow3_zero_4Hz.wav,willow,1,3.35065689999965,1,31,108,66,27,37,1,1,3,4.93119442166667,NaN,2795.089389,2,NaN,NaN,NaN
31,6,7,SyncTheta,106,1113_4Hz.avi,ep29_zero_4Hz.wav,ep,2,3.6625325,1,31,26,106,86,24,2,9,5,4.93119442166667,NaN,2800.4393875,2,NaN,NaN,NaN
31,7,7,SyncTheta,109,1299_4Hz.avi,synth18_zero_4Hz.wav,synth,4,4.07314670000005,1,31,54,71,50,109,4,5,4,4.93119442166667,NaN,2806.0727681,2,NaN,NaN,NaN
31,8,7,SyncTheta,66,1215_4Hz.avi,willow18_zero_4Hz.wav,willow,3,6.97242299999971,0,31,37,27,108,66,4,7,1,4.93119442166667,NaN,2813.2228021,2,NaN,NaN,NaN
31,9,7,SyncTheta,53,1197_4Hz.avi,guitar46_zero_4Hz.wav,guitar,3,4.10539860000017,1,31,73,93,53,15,3,10,4,4.93119442166667,NaN,2821.6895001,2,NaN,NaN,NaN
31,10,7,SyncTheta,73,1369_4Hz.avi,guitar19_zero_4Hz.wav,guitar,1,3.31439399999999,1,31,73,93,53,15,1,2,4,4.93119442166667,NaN,2828.7728344,2,NaN,NaN,NaN
31,11,7,SyncTheta,24,1217_4Hz.avi,ep44_zero_4Hz.wav,ep,4,3.94699089999995,1,31,106,26,86,24,4,15,4,4.93119442166667,NaN,2834.1728574,2,NaN,NaN,NaN
31,12,7,SyncTheta,50,1049_4Hz.avi,synth43_zero_4Hz.wav,synth,3,5.86318389999997,1,31,71,109,50,54,3,8,4,4.93119442166667,NaN,2841.2895843,2,NaN,NaN,NaN
31,13,7,SyncTheta,37,1237_4Hz.avi,willow15_zero_4Hz.wav,willow,2,3.58821089999992,0,31,37,66,108,27,1,16,4,4.93119442166667,NaN,2850.1395914,2,NaN,NaN,NaN
31,14,7,SyncTheta,26,1190_4Hz.avi,ep7_zero_4Hz.wav,ep,2,4.00349150000011,1,31,106,26,86,24,2,11,4,4.93119442166667,NaN,2855.7896464,2,NaN,NaN,NaN
31,15,7,SyncTheta,27,1202_4Hz.avi,willow16_zero_4Hz.wav,willow,3,5.22974599999998,0,31,37,66,108,27,4,14,3,4.93119442166667,NaN,2862.1396463,2,NaN,NaN,NaN
31,16,7,SyncTheta,93,1046_4Hz.avi,guitar18_zero_4Hz.wav,guitar,1,5.81372529999999,0,31,15,93,73,53,2,6,5,4.93119442166667,NaN,2869.3396763,2,NaN,NaN,NaN
31,1,8,SyncDelta,31,1404_1.7Hz.avi,dar8_zero_1.7Hz.wav,dar,2,4.36493689999998,1,31,14,31,45,43,2,5,5,4.596538335,NaN,3032.6903674,2,NaN,NaN,NaN
31,2,8,SyncDelta,52,1387_1.7Hz.avi,choir2_zero_1.7Hz.wav,choir,4,6.84106470000006,0,31,13,52,11,62,2,14,2,4.596538335,NaN,3040.2237688,2,NaN,NaN,NaN
31,3,8,SyncDelta,45,1203_1.7Hz.avi,dar2_zero_1.7Hz.wav,dar,1,3.93369170000005,1,31,45,31,43,14,1,15,5,4.596538335,NaN,3048.6237625,2,NaN,NaN,NaN
31,4,8,SyncDelta,9,1054_1.7Hz.avi,acoustic44_zero_1.7Hz.wav,acoustic,2,5.74029199999995,1,31,4,9,39,23,2,1,5,4.596538335,NaN,3055.4404619,2,NaN,NaN,NaN
31,5,8,SyncDelta,33,1136_1.7Hz.avi,orch38_zero_1.7Hz.wav,orch,2,4.06025,1,31,57,33,74,28,2,2,5,4.596538335,NaN,3063.790495,2,NaN,NaN,NaN
31,6,8,SyncDelta,23,1330_1.7Hz.avi,acoustic47_zero_1.7Hz.wav,acoustic,4,9.05458410000028,0,31,39,9,23,4,3,4,4,4.596538335,NaN,3070.3738657,2,NaN,NaN,NaN
31,7,8,SyncDelta,14,1416_1.7Hz.avi,dar1_zero_1.7Hz.wav,dar,2,4.39189140000008,1,31,45,14,43,31,2,7,3,4.596538335,NaN,3081.6572447,2,NaN,NaN,NaN
31,8,8,SyncDelta,28,1148_1.7Hz.avi,orch19_zero_1.7Hz.wav,orch,1,5.03770850000001,1,31,28,57,74,33,1,3,4,4.596538335,NaN,3087.7906317,2,NaN,NaN,NaN
31,9,8,SyncDelta,11,1448_1.7Hz.avi,choir36_zero_1.7Hz.wav,choir,3,6.63161039999977,0,31,11,52,13,62,1,13,5,4.596538335,NaN,3095.2406282,2,NaN,NaN,NaN
31,10,8,SyncDelta,62,1058_1.7Hz.avi,choir19_zero_1.7Hz.wav,choir,4,4.0380339999997,0,31,62,13,11,52,1,10,2,4.596538335,NaN,3104.4073336,2,NaN,NaN,NaN
31,11,8,SyncDelta,39,1061_1.7Hz.avi,acoustic11_zero_1.7Hz.wav,acoustic,4,3.98673710000003,1,31,4,9,23,39,4,16,4,4.596538335,NaN,3111.1907078,2,NaN,NaN,NaN
31,12,8,SyncDelta,43,1141_1.7Hz.avi,dar13_zero_1.7Hz.wav,dar,4,4.79495769999994,1,31,14,45,31,43,4,9,4,4.596538335,NaN,3116.9240883,2,NaN,NaN,NaN
31,13,8,SyncDelta,57,1309_1.7Hz.avi,orch7_zero_1.7Hz.wav,orch,4,4.16635009999982,1,31,33,28,74,57,4,8,5,4.596538335,NaN,3124.4907628,2,NaN,NaN,NaN
31,14,8,SyncDelta,4,1167_1.7Hz.avi,acoustic37_zero_1.7Hz.wav,acoustic,3,4.09220309999955,0,31,9,39,23,4,4,11,4,4.596538335,NaN,3131.7741466,2,NaN,NaN,NaN
31,15,8,SyncDelta,74,1337_1.7Hz.avi,orch24_zero_1.7Hz.wav,orch,3,6.3099613000004,1,31,28,33,74,57,3,6,2,4.596538335,NaN,3137.5408095,2,NaN,NaN,NaN
31,16,8,SyncDelta,13,1201_1.7Hz.avi,choir7_zero_1.7Hz.wav,choir,4,5.03110530000004,0,31,13,62,52,11,1,12,4,4.596538335,NaN,3146.0242103,2,NaN,NaN,NaN
31,1,9,AsyncTheta,131,1366_4Hz.avi,synth34_oneeighty_4Hz.wav,synth,2,5.12618909999992,0,31,131,128,186,163,1,4,4,4.88870850166667,21.046490495,3416.3585664,3,NaN,NaN,NaN
31,2,9,AsyncTheta,179,1186_4Hz.avi,guitar30_oneeighty_4Hz.wav,guitar,2,3.44109239999989,1,31,185,179,151,164,2,16,3,4.88870850166667,21.046490495,3424.2085845,3,NaN,NaN,NaN
31,3,9,AsyncTheta,186,1031_4Hz.avi,synth7_oneeighty_4Hz.wav,synth,1,3.3511410000001,0,31,131,186,128,163,2,11,4,4.88870850166667,21.046490495,3430.6752723,3,NaN,NaN,NaN
31,4,9,AsyncTheta,189,1051_4Hz.avi,ep14_oneeighty_4Hz.wav,ep,2,3.77150260000008,0,31,189,177,138,150,1,1,3,4.88870850166667,21.046490495,3437.3752992,3,NaN,NaN,NaN
31,5,9,AsyncTheta,152,1445_4Hz.avi,willow2_oneeighty_4Hz.wav,willow,3,5.61397430000034,0,31,152,178,130,167,1,5,2,4.88870850166667,21.046490495,3443.858762,3,NaN,NaN,NaN
31,6,9,AsyncTheta,177,1283_4Hz.avi,ep38_oneeighty_4Hz.wav,ep,1,6.30836180000006,0,31,189,138,150,177,4,2,4,4.88870850166667,21.046490495,3451.0253572,3,NaN,NaN,NaN
31,7,9,AsyncTheta,163,1441_4Hz.avi,synth27_oneeighty_4Hz.wav,synth,4,3.49858309999991,1,31,186,128,131,163,4,7,2,4.88870850166667,21.046490495,3460.0253883,3,NaN,NaN,NaN
31,8,9,AsyncTheta,178,1057_4Hz.avi,willow9_oneeighty_4Hz.wav,willow,2,3.40436910000017,1,31,167,178,152,130,2,6,1,4.88870850166667,21.046490495,3465.6421109,3,NaN,NaN,NaN
31,9,9,AsyncTheta,164,1087_4Hz.avi,guitar17_oneeighty_4Hz.wav,guitar,4,3.25889790000019,0,31,151,185,164,179,3,15,5,4.88870850166667,21.046490495,3470.508797,3,NaN,NaN,NaN
31,10,9,AsyncTheta,151,1259_4Hz.avi,guitar43_oneeighty_4Hz.wav,guitar,3,7.35105340000018,0,31,151,185,164,179,1,12,5,4.88870850166667,21.046490495,3477.1088255,3,NaN,NaN,NaN
31,11,9,AsyncTheta,150,1394_4Hz.avi,ep11_oneeighty_4Hz.wav,ep,4,6.8018619000004,1,31,189,138,177,150,4,8,5,4.88870850166667,21.046490495,3486.8588674,3,NaN,NaN,NaN
31,12,9,AsyncTheta,128,1269_4Hz.avi,synth14_oneeighty_4Hz.wav,synth,2,5.81393389999994,0,31,163,186,128,131,3,9,3,4.88870850166667,21.046490495,3495.3255436,3,NaN,NaN,NaN
31,13,9,AsyncTheta,130,1081_4Hz.avi,willow5_oneeighty_4Hz.wav,willow,3,3.01702609999984,1,31,152,178,130,167,3,14,1,4.88870850166667,21.046490495,3503.9755743,3,NaN,NaN,NaN
31,14,9,AsyncTheta,138,1149_4Hz.avi,ep2_oneeighty_4Hz.wav,ep,4,3.83097889999999,1,31,189,150,177,138,4,3,5,4.88870850166667,21.046490495,3508.9756068,3,NaN,NaN,NaN
31,15,9,AsyncTheta,167,1177_4Hz.avi,willow24_oneeighty_4Hz.wav,willow,1,4.7588725999999,0,31,152,167,178,130,2,10,5,4.88870850166667,21.046490495,3515.725621,3,NaN,NaN,NaN
31,16,9,AsyncTheta,185,1131_4Hz.avi,guitar45_oneeighty_4Hz.wav,guitar,4,3.84065139999984,1,31,179,151,164,185,4,13,5,4.88870850166667,21.046490495,3522.9090178,3,NaN,NaN,NaN
31,1,10,SyncDelta,2,1431_1.7Hz.avi,dar24_zero_1.7Hz.wav,dar,4,2.22125759999972,0,31,40,2,29,49,2,5,4,4.87407371333333,21.046490495,3695.8763991,3,NaN,NaN,NaN
31,2,10,SyncDelta,38,1184_1.7Hz.avi,choir33_zero_1.7Hz.wav,choir,1,6.15133389999983,0,31,10,12,38,63,3,15,5,4.87407371333333,21.046490495,3701.4264136,3,NaN,NaN,NaN
31,3,10,SyncDelta,40,1239_1.7Hz.avi,dar6_zero_1.7Hz.wav,dar,1,3.94788920000019,1,31,40,49,29,2,1,13,5,4.87407371333333,21.046490495,3709.959781,3,NaN,NaN,NaN
31,4,10,SyncDelta,5,1381_1.7Hz.avi,acoustic1_zero_1.7Hz.wav,acoustic,1,8.7731374,0,31,44,5,1,21,2,3,2,4.87407371333333,21.046490495,3715.4931642,3,NaN,NaN,NaN
31,5,10,SyncDelta,81,1444_1.7Hz.avi,orch4_zero_1.7Hz.wav,orch,1,3.22638740000002,1,31,81,30,42,17,1,6,5,4.87407371333333,21.046490495,3727.0265219,3,NaN,NaN,NaN
31,6,10,SyncDelta,44,1254_1.7Hz.avi,acoustic48_zero_1.7Hz.wav,acoustic,4,6.69334729999991,1,31,21,1,5,44,4,4,5,4.87407371333333,21.046490495,3732.3598851,3,NaN,NaN,NaN
31,7,10,SyncDelta,29,1158_1.7Hz.avi,dar23_zero_1.7Hz.wav,dar,4,8.17814599999974,1,31,2,40,49,29,4,10,4,4.87407371333333,21.046490495,3742.3099123,3,NaN,NaN,NaN
31,8,10,SyncDelta,17,1162_1.7Hz.avi,orch1_zero_1.7Hz.wav,orch,2,4.93688829999974,1,31,42,17,81,30,2,7,5,4.87407371333333,21.046490495,3753.5766901,3,NaN,NaN,NaN
31,9,10,SyncDelta,63,1128_1.7Hz.avi,choir26_zero_1.7Hz.wav,choir,3,7.30783329999986,0,31,10,63,12,38,2,8,2,4.87407371333333,21.046490495,3761.64334,3,NaN,NaN,NaN
31,10,10,SyncDelta,12,1077_1.7Hz.avi,choir18_zero_1.7Hz.wav,choir,2,4.90552600000001,1,31,10,12,63,38,2,1,5,4.87407371333333,21.046490495,3771.4767097,3,NaN,NaN,NaN
31,11,10,SyncDelta,21,1112_1.7Hz.avi,acoustic32_zero_1.7Hz.wav,acoustic,3,5.21236869999984,0,31,44,5,1,21,4,11,4,4.87407371333333,21.046490495,3778.8267354,3,NaN,NaN,NaN
31,12,10,SyncDelta,49,1221_1.7Hz.avi,dar21_zero_1.7Hz.wav,dar,2,5.98828679999997,0,31,40,29,49,2,3,12,1,4.87407371333333,21.046490495,3785.8100991,3,NaN,NaN,NaN
31,13,10,SyncDelta,42,1339_1.7Hz.avi,orch31_zero_1.7Hz.wav,orch,2,3.59561930000018,1,31,17,42,81,30,2,16,1,4.87407371333333,21.046490495,3793.1601317,3,NaN,NaN,NaN
31,14,10,SyncDelta,1,1064_1.7Hz.avi,acoustic12_zero_1.7Hz.wav,acoustic,4,4.61242320000019,0,31,44,1,5,21,2,9,5,4.87407371333333,21.046490495,3799.5934939,3,NaN,NaN,NaN
31,15,10,SyncDelta,30,1016_1.7Hz.avi,orch14_zero_1.7Hz.wav,orch,1,6.48524260000022,1,31,30,17,42,81,1,14,1,4.87407371333333,21.046490495,3806.8935263,3,NaN,NaN,NaN
31,16,10,SyncDelta,10,1179_1.7Hz.avi,choir4_zero_1.7Hz.wav,choir,1,4.01540049999994,1,31,10,63,12,38,1,2,4,4.87407371333333,21.046490495,3815.2935579,3,NaN,NaN,NaN
31,1,11,SyncTheta,95,1359_4Hz.avi,synth33_zero_4Hz.wav,synth,3,9.28300519999993,1,31,8,89,95,61,3,3,2,5.58217381166667,21.046490495,3998.12767,3,NaN,NaN,NaN
31,2,11,SyncTheta,3,1156_4Hz.avi,guitar31_zero_4Hz.wav,guitar,2,4.66711530000021,0,31,84,77,3,59,3,16,4,5.58217381166667,21.046490495,4009.4443856,3,NaN,NaN,NaN
31,3,11,SyncTheta,61,1207_4Hz.avi,synth46_zero_4Hz.wav,synth,1,4.51271799999995,0,31,8,61,95,89,2,13,2,5.58217381166667,21.046490495,4017.177751,3,NaN,NaN,NaN
31,4,11,SyncTheta,87,1142_4Hz.avi,ep3_zero_4Hz.wav,ep,3,3.10240199999998,1,31,99,41,87,6,3,8,1,5.58217381166667,21.046490495,4024.0111167,3,NaN,NaN,NaN
31,5,11,SyncTheta,92,1030_4Hz.avi,willow23_zero_4Hz.wav,willow,4,12.4655072999999,0,31,75,48,92,18,3,4,5,5.58217381166667,21.046490495,4029.7444848,3,NaN,NaN,NaN
31,6,11,SyncTheta,99,1173_4Hz.avi,ep6_zero_4Hz.wav,ep,3,5.68459159999975,0,31,99,41,6,87,1,10,5,5.58217381166667,21.046490495,4044.2945306,3,NaN,NaN,NaN
31,7,11,SyncTheta,8,1252_4Hz.avi,synth25_zero_4Hz.wav,synth,1,16.1898111999999,0,31,61,95,89,8,4,6,5,5.58217381166667,21.046490495,4052.8612667,3,NaN,NaN,NaN
31,8,11,SyncTheta,18,1101_4Hz.avi,willow13_zero_4Hz.wav,willow,4,7.73754120000012,0,31,75,92,18,48,3,7,4,5.58217381166667,21.046490495,4070.5446414,3,NaN,NaN,NaN
31,9,11,SyncTheta,59,1346_4Hz.avi,guitar33_zero_4Hz.wav,guitar,3,7.00446370000009,0,31,59,3,84,77,1,5,3,5.58217381166667,21.046490495,4080.978024,3,NaN,NaN,NaN
31,10,11,SyncTheta,77,1008_4Hz.avi,guitar42_zero_4Hz.wav,guitar,3,6.76122589999977,0,31,59,77,84,3,2,1,4,5.58217381166667,21.046490495,4091.2447264,3,NaN,NaN,NaN
31,11,11,SyncTheta,6,1007_4Hz.avi,ep8_zero_4Hz.wav,ep,1,6.67619569999988,0,31,41,99,6,87,3,15,5,5.58217381166667,21.046490495,4099.9614379,3,NaN,NaN,NaN
31,12,11,SyncTheta,89,1393_4Hz.avi,synth41_zero_4Hz.wav,synth,1,14.3326413000004,0,31,95,89,8,61,2,12,5,5.58217381166667,21.046490495,4109.7448089,3,NaN,NaN,NaN
31,13,11,SyncTheta,75,1040_4Hz.avi,willow17_zero_4Hz.wav,willow,3,3.25161320000007,1,31,48,92,75,18,3,14,1,5.58217381166667,21.046490495,4126.194884,3,NaN,NaN,NaN
31,14,11,SyncTheta,41,1132_4Hz.avi,ep10_zero_4Hz.wav,ep,1,8.26634009999998,0,31,99,6,87,41,4,11,4,5.58217381166667,21.046490495,4130.8282294,3,NaN,NaN,NaN
31,15,11,SyncTheta,48,1021_4Hz.avi,willow12_zero_4Hz.wav,willow,3,4.24550069999987,0,31,75,18,92,48,4,9,5,5.58217381166667,21.046490495,4141.7783089,3,NaN,NaN,NaN
31,16,11,SyncTheta,84,1294_4Hz.avi,guitar6_zero_4Hz.wav,guitar,3,6.75469780000003,1,31,59,77,84,3,3,2,5,5.58217381166667,21.046490495,4147.6283024,3,NaN,NaN,NaN
31,1,12,NoFlicker,126,1298_half_amp.avi,dar9_half_amp.wav,dar,2,9.71984669999983,0,31,82,103,126,114,3,9,3,4.90609022333333,21.046490495,4332.9957637,3,NaN,NaN,NaN
31,2,12,NoFlicker,88,1191_half_amp.avi,choir20_half_amp.wav,choir,4,4.88516680000066,0,31,88,76,78,121,1,12,2,4.90609022333333,21.046490495,4344.4958056,3,NaN,NaN,NaN
31,3,12,NoFlicker,114,1322_half_amp.avi,dar14_half_amp.wav,dar,1,6.14820879999934,0,31,126,103,82,114,4,16,3,4.90609022333333,21.046490495,4351.6791977,3,NaN,NaN,NaN
31,4,12,NoFlicker,96,1027_half_amp.avi,acoustic40_half_amp.wav,acoustic,2,5.53165210000043,1,31,107,96,79,83,2,3,3,4.90609022333333,21.046490495,4359.1958662,3,NaN,NaN,NaN
31,5,12,NoFlicker,137,1303_half_amp.avi,orch10_half_amp.wav,orch,4,3.24004279999917,0,31,137,110,134,143,1,1,4,4.90609022333333,21.046490495,4366.5459385,3,NaN,NaN,NaN
31,6,12,NoFlicker,107,1265_half_amp.avi,acoustic16_half_amp.wav,acoustic,3,3.67139159999988,1,31,79,83,107,96,3,5,1,4.90609022333333,21.046490495,4372.2459643,3,NaN,NaN,NaN
31,7,12,NoFlicker,82,1449_half_amp.avi,dar17_half_amp.wav,dar,2,6.36561400000028,1,31,126,82,103,114,2,11,4,4.90609022333333,21.046490495,4379.0126273,3,NaN,NaN,NaN
31,8,12,NoFlicker,134,1026_half_amp.avi,orch16_half_amp.wav,orch,3,3.53307140000015,1,31,143,110,134,137,3,4,3,4.90609022333333,21.046490495,4388.0126582,3,NaN,NaN,NaN
31,9,12,NoFlicker,78,1301_half_amp.avi,choir11_half_amp.wav,choir,1,3.24616569999944,0,31,76,88,78,121,3,10,3,4.90609022333333,21.046490495,4394.2960177,3,NaN,NaN,NaN
31,10,12,NoFlicker,121,1354_half_amp.avi,choir22_half_amp.wav,choir,1,4.16013890000067,0,31,88,78,76,121,4,2,2,4.90609022333333,21.046490495,4400.6294081,3,NaN,NaN,NaN
31,11,12,NoFlicker,83,1139_half_amp.avi,acoustic27_half_amp.wav,acoustic,2,3.85651349999989,1,31,79,83,96,107,2,14,4,4.90609022333333,21.046490495,4407.4294563,3,NaN,NaN,NaN
31,12,12,NoFlicker,103,1084_half_amp.avi,dar20_half_amp.wav,dar,4,4.73811109999951,0,31,103,126,82,114,1,15,4,4.90609022333333,21.046490495,4412.8294426,3,NaN,NaN,NaN
31,13,12,NoFlicker,143,1127_half_amp.avi,orch11_half_amp.wav,orch,3,5.12360089999947,1,31,137,134,143,110,3,13,5,4.90609022333333,21.046490495,4420.6127961,3,NaN,NaN,NaN
31,14,12,NoFlicker,79,1071_half_amp.avi,acoustic17_half_amp.wav,acoustic,4,7.6042383999993,0,31,96,79,107,83,2,7,5,4.90609022333333,21.046490495,4428.7295399,3,NaN,NaN,NaN
31,15,12,NoFlicker,110,1443_half_amp.avi,orch3_half_amp.wav,orch,1,3.69861740000033,1,31,110,143,134,137,1,8,5,4.90609022333333,21.046490495,4438.9462041,3,NaN,NaN,NaN
31,16,12,NoFlicker,76,1293_half_amp.avi,choir23_half_amp.wav,choir,1,3.57012869999926,1,31,76,88,78,121,1,6,5,4.90609022333333,21.046490495,4445.3295992,3,NaN,NaN,NaN
