ParticipantID,TrialNumber,BlockNumber,Condition,ClipID,VideoFile,SoundFile,SoundCategory,Response,RT,Accuracy,ConditionID,Frame1,Frame2,Frame3,Frame4,CorrectKey,EncodingPosition,Rating,BlockDuration,ExperimentDuration,MemoryTestOnset,RunNumber,Age,Handedness,Sex
15,1,1,NoFlicker,124,1183_half_amp.avi,choir24_half_amp.wav,choir,3,6.02851210000063,0,15,97,124,121,160,2,7,2,5.38958013,NaN,6939.1367316,1,NaN,NaN,NaN
15,2,1,NoFlicker,145,1352_half_amp.avi,orch39_half_amp.wav,orch,3,6.47607630000039,0,15,141,174,143,145,4,6,4,5.38958013,NaN,6946.603372,1,NaN,NaN,NaN
15,3,1,NoFlicker,113,1037_half_amp.avi,acoustic23_half_amp.wav,acoustic,1,7.55812500000047,0,15,104,113,169,107,2,3,3,5.38958013,NaN,6955.6701002,1,NaN,NaN,NaN
15,4,1,NoFlicker,104,1111_half_amp.avi,acoustic31_half_amp.wav,acoustic,2,4.74606080000012,1,15,113,104,107,169,2,4,4,5.38958013,NaN,6964.6868034,1,NaN,NaN,NaN
15,5,1,NoFlicker,169,1083_half_amp.avi,acoustic43_half_amp.wav,acoustic,1,7.22470080000039,1,15,169,113,107,104,1,10,3,5.38958013,NaN,6971.6701974,1,NaN,NaN,NaN
15,6,1,NoFlicker,126,1298_half_amp.avi,dar9_half_amp.wav,dar,2,7.58873949999997,1,15,136,126,162,116,2,9,3,5.38958013,NaN,6980.4368728,1,NaN,NaN,NaN
15,7,1,NoFlicker,121,1354_half_amp.avi,choir22_half_amp.wav,choir,1,4.59383000000071,0,15,160,97,121,124,3,12,4,5.38958013,NaN,6991.2702438,1,NaN,NaN,NaN
15,8,1,NoFlicker,116,1420_half_amp.avi,dar18_half_amp.wav,dar,2,7.52757180000026,1,15,162,116,126,136,2,14,5,5.38958013,NaN,6997.8369444,1,NaN,NaN,NaN
15,9,1,NoFlicker,143,1127_half_amp.avi,orch11_half_amp.wav,orch,1,3.90298149999944,1,15,143,141,145,174,1,13,4,5.38958013,NaN,7006.9869716,1,NaN,NaN,NaN
15,10,1,NoFlicker,160,1421_half_amp.avi,choir13_half_amp.wav,choir,1,4.42571369999951,0,15,97,124,160,121,3,11,3,5.38958013,NaN,7013.937031,1,NaN,NaN,NaN
15,11,1,NoFlicker,107,1265_half_amp.avi,acoustic16_half_amp.wav,acoustic,4,4.54400239999995,1,15,113,169,104,107,4,1,1,5.38958013,NaN,7019.8703555,1,NaN,NaN,NaN
15,12,1,NoFlicker,162,1358_half_amp.avi,dar7_half_amp.wav,dar,2,3.55888499999946,1,15,116,162,126,136,2,5,5,5.38958013,NaN,7026.1537477,1,NaN,NaN,NaN
15,13,1,NoFlicker,97,1368_half_amp.avi,choir30_half_amp.wav,choir,4,3.3824126999998,1,15,121,124,160,97,4,16,5,5.38958013,NaN,7031.6037697,1,NaN,NaN,NaN
15,14,1,NoFlicker,136,1175_half_amp.avi,dar4_half_amp.wav,dar,4,4.10083069999928,1,15,126,162,116,136,4,8,5,5.38958013,NaN,7038.0371381,1,NaN,NaN,NaN
15,15,1,NoFlicker,141,1401_half_amp.avi,orch12_half_amp.wav,orch,4,5.52721079999992,0,15,174,143,141,145,3,15,4,5.38958013,NaN,7044.9038203,1,NaN,NaN,NaN
15,16,1,NoFlicker,174,1119_half_amp.avi,orch45_half_amp.wav,orch,4,7.73365940000076,0,15,145,174,143,141,2,2,2,5.38958013,NaN,7053.1538273,1,NaN,NaN,NaN
15,1,2,SyncTheta,59,1346_4Hz.avi,guitar33_zero_4Hz.wav,guitar,4,5.8546895999998,0,15,90,7,59,3,3,3,4,4.97940569166667,NaN,7243.137923,1,NaN,NaN,NaN
15,2,2,SyncTheta,18,1101_4Hz.avi,willow13_zero_4Hz.wav,willow,1,5.80457470000056,0,15,94,18,22,48,2,5,3,4.97940569166667,NaN,7250.654618,1,NaN,NaN,NaN
15,3,2,SyncTheta,101,1295_4Hz.avi,ep40_zero_4Hz.wav,ep,4,4.36749119999968,1,15,6,16,41,101,4,8,5,4.97940569166667,NaN,7259.5879941,1,NaN,NaN,NaN
15,4,2,SyncTheta,41,1132_4Hz.avi,ep10_zero_4Hz.wav,ep,3,5.08148799999981,0,15,101,41,6,16,2,9,3,4.97940569166667,NaN,7265.4047386,1,NaN,NaN,NaN
15,5,2,SyncTheta,16,1442_4Hz.avi,ep34_zero_4Hz.wav,ep,2,9.68585939999957,0,15,101,6,16,41,3,16,2,4.97940569166667,NaN,7272.1714086,1,NaN,NaN,NaN
15,6,2,SyncTheta,8,1252_4Hz.avi,synth25_zero_4Hz.wav,synth,1,3.91081649999978,0,15,100,8,35,61,2,14,5,4.97940569166667,NaN,7284.0714289,1,NaN,NaN,NaN
15,7,2,SyncTheta,90,1273_4Hz.avi,guitar23_zero_4Hz.wav,guitar,3,7.42975959999967,0,15,90,3,59,7,1,7,2,4.97940569166667,NaN,7290.7214561,1,NaN,NaN,NaN
15,8,2,SyncTheta,35,1039_4Hz.avi,synth5_zero_4Hz.wav,synth,4,4.270039,1,15,100,8,61,35,4,15,1,4.97940569166667,NaN,7300.6382272,1,NaN,NaN,NaN
15,9,2,SyncTheta,48,1021_4Hz.avi,willow12_zero_4Hz.wav,willow,1,4.06163920000017,1,15,48,18,94,22,1,11,1,4.97940569166667,NaN,7307.238217,1,NaN,NaN,NaN
15,10,2,SyncTheta,7,1017_4Hz.avi,guitar47_zero_4Hz.wav,guitar,2,3.56917789999989,1,15,90,7,3,59,2,6,4,4.97940569166667,NaN,7313.1548861,1,NaN,NaN,NaN
15,11,2,SyncTheta,6,1007_4Hz.avi,ep8_zero_4Hz.wav,ep,4,5.26555550000012,0,15,6,41,16,101,1,1,3,4.97940569166667,NaN,7320.0716449,1,NaN,NaN,NaN
15,12,2,SyncTheta,61,1207_4Hz.avi,synth46_zero_4Hz.wav,synth,1,4.15371330000016,1,15,61,8,100,35,1,2,1,4.97940569166667,NaN,7328.5216733,1,NaN,NaN,NaN
15,13,2,SyncTheta,3,1156_4Hz.avi,guitar31_zero_4Hz.wav,guitar,2,4.31560389999959,0,15,3,90,7,59,1,12,2,4.97940569166667,NaN,7335.138336,1,NaN,NaN,NaN
15,14,2,SyncTheta,100,1107_4Hz.avi,synth23_zero_4Hz.wav,synth,1,3.93137110000043,1,15,100,8,61,35,1,10,4,4.97940569166667,NaN,7342.1550566,1,NaN,NaN,NaN
15,15,2,SyncTheta,94,1109_4Hz.avi,willow6_zero_4Hz.wav,willow,2,4.07322230000045,0,15,48,18,22,94,4,13,4,4.97940569166667,NaN,7347.4550763,1,NaN,NaN,NaN
15,16,2,SyncTheta,22,1212_4Hz.avi,willow20_zero_4Hz.wav,willow,4,5.7398288000004,1,15,48,18,94,22,4,4,5,4.97940569166667,NaN,7354.055079,1,NaN,NaN,NaN
15,1,3,AsyncTheta,146,1005_4Hz.avi,guitar14_oneeighty_4Hz.wav,guitar,2,7.66829510000025,0,15,164,151,146,112,3,1,1,4.96935541,NaN,7516.9390877,1,NaN,NaN,NaN
15,2,3,AsyncTheta,120,1365_4Hz.avi,willow21_oneeighty_4Hz.wav,willow,2,8.10871459999998,0,15,118,130,120,152,3,3,4,4.96935541,NaN,7527.1724361,1,NaN,NaN,NaN
15,3,3,AsyncTheta,132,1356_4Hz.avi,ep30_oneeighty_4Hz.wav,ep,4,7.30442109999967,0,15,150,138,132,117,3,9,4,4.96935541,NaN,7537.5058329,1,NaN,NaN,NaN
15,4,3,AsyncTheta,138,1149_4Hz.avi,ep2_oneeighty_4Hz.wav,ep,4,4.6300111999999,1,15,132,150,117,138,4,10,4,4.96935541,NaN,7547.7558792,1,NaN,NaN,NaN
15,5,3,AsyncTheta,150,1394_4Hz.avi,ep11_oneeighty_4Hz.wav,ep,3,9.92623689999982,0,15,132,138,117,150,4,13,2,4.96935541,NaN,7554.8559121,1,NaN,NaN,NaN
15,6,3,AsyncTheta,128,1269_4Hz.avi,synth14_oneeighty_4Hz.wav,synth,4,5.88698490000024,0,15,127,111,128,131,3,14,3,4.96935541,NaN,7566.3559605,1,NaN,NaN,NaN
15,7,3,AsyncTheta,112,1388_4Hz.avi,guitar39_oneeighty_4Hz.wav,guitar,3,8.33252159999938,1,15,151,146,112,164,3,6,4,4.96935541,NaN,7574.0226332,1,NaN,NaN,NaN
15,8,3,AsyncTheta,127,1411_4Hz.avi,synth28_oneeighty_4Hz.wav,synth,2,5.48746560000018,1,15,111,127,128,131,2,15,1,4.96935541,NaN,7584.5893699,1,NaN,NaN,NaN
15,9,3,AsyncTheta,130,1081_4Hz.avi,willow5_oneeighty_4Hz.wav,willow,1,6.39728009999999,0,15,118,152,120,130,4,7,3,4.96935541,NaN,7592.1227074,1,NaN,NaN,NaN
15,10,3,AsyncTheta,151,1259_4Hz.avi,guitar43_oneeighty_4Hz.wav,guitar,2,7.30502980000074,0,15,151,164,112,146,1,4,2,4.96935541,NaN,7601.3394413,1,NaN,NaN,NaN
15,11,3,AsyncTheta,117,1144_4Hz.avi,ep39_oneeighty_4Hz.wav,ep,1,7.83770630000072,0,15,138,150,117,132,3,8,4,4.96935541,NaN,7610.1727765,1,NaN,NaN,NaN
15,12,3,AsyncTheta,111,1390_4Hz.avi,synth3_oneeighty_4Hz.wav,synth,3,7.15289180000036,1,15,127,131,111,128,3,5,5,4.96935541,NaN,7621.1395216,1,NaN,NaN,NaN
15,13,3,AsyncTheta,164,1087_4Hz.avi,guitar17_oneeighty_4Hz.wav,guitar,3,4.58754210000006,0,15,112,164,146,151,2,11,1,4.96935541,NaN,7631.2062264,1,NaN,NaN,NaN
15,14,3,AsyncTheta,131,1366_4Hz.avi,synth34_oneeighty_4Hz.wav,synth,1,5.30708249999952,0,15,128,127,131,111,3,12,2,4.96935541,NaN,7638.172897,1,NaN,NaN,NaN
15,15,3,AsyncTheta,118,1020_4Hz.avi,willow22_oneeighty_4Hz.wav,willow,2,4.64946980000059,0,15,130,152,120,118,4,16,1,4.96935541,NaN,7646.2396284,1,NaN,NaN,NaN
15,16,3,AsyncTheta,152,1445_4Hz.avi,willow2_oneeighty_4Hz.wav,willow,4,3.83068980000007,0,15,152,118,130,120,1,2,3,4.96935541,NaN,7654.2396553,1,NaN,NaN,NaN
15,1,4,SyncDelta,13,1201_1.7Hz.avi,choir7_zero_1.7Hz.wav,choir,4,10.2669978999993,1,15,10,11,38,13,4,7,1,4.56305937,NaN,7806.3069468,1,NaN,NaN,NaN
15,2,4,SyncDelta,17,1162_1.7Hz.avi,orch1_zero_1.7Hz.wav,orch,1,4.96713970000019,0,15,28,17,33,42,2,5,2,4.56305937,NaN,7818.1237341,1,NaN,NaN,NaN
15,3,4,SyncDelta,4,1167_1.7Hz.avi,acoustic37_zero_1.7Hz.wav,acoustic,1,5.4091397000002,0,15,21,9,4,1,3,8,5,4.56305937,NaN,7826.0070338,1,NaN,NaN,NaN
15,4,4,SyncDelta,21,1112_1.7Hz.avi,acoustic32_zero_1.7Hz.wav,acoustic,2,7.16797279999992,0,15,21,9,4,1,1,13,4,4.56305937,NaN,7834.0237341,1,NaN,NaN,NaN
15,5,4,SyncDelta,9,1054_1.7Hz.avi,acoustic44_zero_1.7Hz.wav,acoustic,4,4.76165459999993,0,15,1,21,9,4,3,16,4,4.56305937,NaN,7842.6904357,1,NaN,NaN,NaN
15,6,4,SyncDelta,31,1404_1.7Hz.avi,dar8_zero_1.7Hz.wav,dar,4,4.05087279999952,1,15,14,2,40,31,4,9,5,4.56305937,NaN,7850.1238032,1,NaN,NaN,NaN
15,7,4,SyncDelta,11,1448_1.7Hz.avi,choir36_zero_1.7Hz.wav,choir,3,6.13765319999948,1,15,10,13,11,38,3,14,3,4.56305937,NaN,7857.2404929,1,NaN,NaN,NaN
15,8,4,SyncDelta,40,1239_1.7Hz.avi,dar6_zero_1.7Hz.wav,dar,4,3.31566250000014,1,15,14,31,2,40,4,12,2,4.56305937,NaN,7866.4738938,1,NaN,NaN,NaN
15,9,4,SyncDelta,33,1136_1.7Hz.avi,orch38_zero_1.7Hz.wav,orch,4,6.28571710000051,0,15,17,33,28,42,2,6,3,4.56305937,NaN,7871.4071974,1,NaN,NaN,NaN
15,10,4,SyncDelta,10,1179_1.7Hz.avi,choir4_zero_1.7Hz.wav,choir,1,3.45254980000027,1,15,10,38,13,11,1,10,4,4.56305937,NaN,7881.0405671,1,NaN,NaN,NaN
15,11,4,SyncDelta,1,1064_1.7Hz.avi,acoustic12_zero_1.7Hz.wav,acoustic,4,5.66614060000029,0,15,4,1,21,9,2,3,4,4.56305937,NaN,7886.3906109,1,NaN,NaN,NaN
15,12,4,SyncDelta,14,1416_1.7Hz.avi,dar1_zero_1.7Hz.wav,dar,1,5.48516909999944,0,15,2,31,40,14,4,1,1,4.56305937,NaN,7893.7573276,1,NaN,NaN,NaN
15,13,4,SyncDelta,38,1184_1.7Hz.avi,choir33_zero_1.7Hz.wav,choir,3,4.4552721,0,15,13,11,10,38,4,15,1,4.56305937,NaN,7901.857347,1,NaN,NaN,NaN
15,14,4,SyncDelta,2,1431_1.7Hz.avi,dar24_zero_1.7Hz.wav,dar,2,4.96876599999996,1,15,14,2,31,40,2,4,5,4.56305937,NaN,7909.4073822,1,NaN,NaN,NaN
15,15,4,SyncDelta,28,1148_1.7Hz.avi,orch19_zero_1.7Hz.wav,orch,4,5.66366840000046,0,15,42,33,28,17,3,11,2,4.56305937,NaN,7917.707417,1,NaN,NaN,NaN
15,16,4,SyncDelta,42,1339_1.7Hz.avi,orch31_zero_1.7Hz.wav,orch,1,6.32151229999999,0,15,17,42,33,28,2,2,1,4.56305937,NaN,7925.6074464,1,NaN,NaN,NaN
15,1,5,AsyncTheta,179,1186_4Hz.avi,guitar30_oneeighty_4Hz.wav,guitar,4,5.72580060000018,1,15,168,185,115,179,4,8,4,4.759915755,NaN,8185.7084839,2,NaN,NaN,NaN
15,2,5,AsyncTheta,167,1177_4Hz.avi,willow24_oneeighty_4Hz.wav,willow,4,5.6820501000002,0,15,119,167,178,153,2,5,3,4.759915755,NaN,8193.375151,2,NaN,NaN,NaN
15,3,5,AsyncTheta,189,1051_4Hz.avi,ep14_oneeighty_4Hz.wav,ep,3,8.26364659999854,0,15,177,123,166,189,4,4,1,4.759915755,NaN,8200.6252347,2,NaN,NaN,NaN
15,4,5,AsyncTheta,177,1283_4Hz.avi,ep38_oneeighty_4Hz.wav,ep,1,4.73509279999962,1,15,177,123,189,166,1,6,1,4.759915755,NaN,8211.4252508,2,NaN,NaN,NaN
15,5,5,AsyncTheta,166,1227_4Hz.avi,ep5_oneeighty_4Hz.wav,ep,4,4.4226611999984,0,15,166,177,123,189,1,12,1,4.759915755,NaN,8217.7086092,2,NaN,NaN,NaN
15,6,5,AsyncTheta,125,1050_4Hz.avi,synth36_oneeighty_4Hz.wav,synth,2,5.0386537000013,1,15,163,125,186,135,2,13,1,4.759915755,NaN,8225.3919474,2,NaN,NaN,NaN
15,7,5,AsyncTheta,168,1204_4Hz.avi,guitar36_oneeighty_4Hz.wav,guitar,1,4.35708879999947,0,15,185,179,115,168,4,11,4,4.759915755,NaN,8232.2586682,2,NaN,NaN,NaN
15,8,5,AsyncTheta,163,1441_4Hz.avi,synth27_oneeighty_4Hz.wav,synth,2,3.6110506999994,1,15,125,163,186,135,2,16,1,4.759915755,NaN,8238.9086988,2,NaN,NaN,NaN
15,9,5,AsyncTheta,178,1057_4Hz.avi,willow9_oneeighty_4Hz.wav,willow,4,6.35723370000051,0,15,178,153,167,119,1,10,2,4.759915755,NaN,8245.6754165,2,NaN,NaN,NaN
15,10,5,AsyncTheta,115,1370_4Hz.avi,guitar9_oneeighty_4Hz.wav,guitar,3,3.9106112999998,1,15,168,179,115,185,3,9,1,4.759915755,NaN,8253.9087594,2,NaN,NaN,NaN
15,11,5,AsyncTheta,123,1067_4Hz.avi,ep37_oneeighty_4Hz.wav,ep,3,3.99418829999922,1,15,177,166,123,189,3,2,4,4.759915755,NaN,8259.3587819,2,NaN,NaN,NaN
15,12,5,AsyncTheta,186,1031_4Hz.avi,synth7_oneeighty_4Hz.wav,synth,1,4.35635510000066,0,15,135,163,186,125,3,3,4,4.759915755,NaN,8266.1921147,2,NaN,NaN,NaN
15,13,5,AsyncTheta,185,1131_4Hz.avi,guitar45_oneeighty_4Hz.wav,guitar,3,4.06650760000048,0,15,185,168,115,179,1,15,2,4.759915755,NaN,8272.9588321,2,NaN,NaN,NaN
15,14,5,AsyncTheta,135,1154_4Hz.avi,synth38_oneeighty_4Hz.wav,synth,1,3.78979299999992,1,15,135,163,125,186,1,7,4,4.759915755,NaN,8278.6255226,2,NaN,NaN,NaN
15,15,5,AsyncTheta,119,1189_4Hz.avi,willow11_oneeighty_4Hz.wav,willow,3,5.12185689999933,0,15,153,119,178,167,2,14,2,4.759915755,NaN,8284.6588568,2,NaN,NaN,NaN
15,16,5,AsyncTheta,153,1157_4Hz.avi,willow1_oneeighty_4Hz.wav,willow,4,3.65172789999997,1,15,167,178,119,153,4,1,4,4.759915755,NaN,8292.1089495,2,NaN,NaN,NaN
15,1,6,NoFlicker,76,1293_half_amp.avi,choir23_half_amp.wav,choir,4,4.95192449999922,1,15,139,78,88,76,4,3,1,4.36223151666667,NaN,8439.5762238,2,NaN,NaN,NaN
15,2,6,NoFlicker,137,1303_half_amp.avi,orch10_half_amp.wav,orch,1,8.47965189999923,0,15,134,137,110,158,2,13,2,4.36223151666667,NaN,8446.792853,2,NaN,NaN,NaN
15,3,6,NoFlicker,96,1027_half_amp.avi,acoustic40_half_amp.wav,acoustic,4,6.96947179999916,1,15,83,79,133,96,4,4,4,4.36223151666667,NaN,8457.6929295,2,NaN,NaN,NaN
15,4,6,NoFlicker,83,1139_half_amp.avi,acoustic27_half_amp.wav,acoustic,4,3.46522120000009,0,15,79,83,96,133,2,6,5,4.36223151666667,NaN,8467.2096648,2,NaN,NaN,NaN
15,5,6,NoFlicker,133,1341_half_amp.avi,acoustic14_half_amp.wav,acoustic,4,6.14159069999914,1,15,96,79,83,133,4,7,4,4.36223151666667,NaN,8472.70966,2,NaN,NaN,NaN
15,6,6,NoFlicker,114,1322_half_amp.avi,dar14_half_amp.wav,dar,4,5.07614790000116,1,15,147,82,103,114,4,8,3,4.36223151666667,NaN,8481.2763941,2,NaN,NaN,NaN
15,7,6,NoFlicker,78,1301_half_amp.avi,choir11_half_amp.wav,choir,2,6.09754029999931,0,15,76,88,139,78,4,11,3,4.36223151666667,NaN,8488.4430295,2,NaN,NaN,NaN
15,8,6,NoFlicker,147,1304_half_amp.avi,dar10_half_amp.wav,dar,4,7.24431910000021,0,15,147,114,82,103,1,9,1,4.36223151666667,NaN,8496.9764011,2,NaN,NaN,NaN
15,9,6,NoFlicker,110,1443_half_amp.avi,orch3_half_amp.wav,orch,2,4.26649039999938,1,15,158,110,137,134,2,15,5,4.36223151666667,NaN,8507.1598187,2,NaN,NaN,NaN
15,10,6,NoFlicker,139,1192_half_amp.avi,choir5_half_amp.wav,choir,1,4.68522679999842,1,15,139,78,88,76,1,10,2,4.36223151666667,NaN,8513.759803,2,NaN,NaN,NaN
15,11,6,NoFlicker,79,1071_half_amp.avi,acoustic17_half_amp.wav,acoustic,4,5.47925339999892,0,15,133,83,79,96,3,1,5,4.36223151666667,NaN,8521.7265279,2,NaN,NaN,NaN
15,12,6,NoFlicker,82,1449_half_amp.avi,dar17_half_amp.wav,dar,1,4.8000860000011,1,15,82,147,103,114,1,2,4,4.36223151666667,NaN,8528.7431946,2,NaN,NaN,NaN
15,13,6,NoFlicker,88,1191_half_amp.avi,choir20_half_amp.wav,choir,1,4.07464029999937,0,15,78,88,139,76,2,14,5,4.36223151666667,NaN,8536.5099248,2,NaN,NaN,NaN
15,14,6,NoFlicker,103,1084_half_amp.avi,dar20_half_amp.wav,dar,1,4.44111259999954,0,15,114,147,82,103,4,5,1,4.36223151666667,NaN,8542.6932581,2,NaN,NaN,NaN
15,15,6,NoFlicker,158,1206_half_amp.avi,orch6_half_amp.wav,orch,4,4.27128149999953,1,15,110,134,137,158,4,16,4,4.36223151666667,NaN,8548.5933074,2,NaN,NaN,NaN
15,16,6,NoFlicker,134,1026_half_amp.avi,orch16_half_amp.wav,orch,2,3.25294399999984,0,15,134,137,110,158,1,12,3,4.36223151666667,NaN,8554.3266829,2,NaN,NaN,NaN
15,1,7,SyncDelta,72,1097_1.7Hz.avi,choir29_zero_1.7Hz.wav,choir,1,4.15439180000067,1,15,72,63,12,68,1,5,5,4.225681515,NaN,8699.7606043,2,NaN,NaN,NaN
15,2,7,SyncDelta,85,1383_1.7Hz.avi,orch23_zero_1.7Hz.wav,orch,4,3.9483952999999,0,15,30,85,102,81,2,11,2,4.225681515,NaN,8706.4106242,2,NaN,NaN,NaN
15,3,7,SyncDelta,44,1254_1.7Hz.avi,acoustic48_zero_1.7Hz.wav,acoustic,4,7.86542740000004,0,15,44,60,5,47,1,4,4,4.225681515,NaN,8712.7273466,2,NaN,NaN,NaN
15,4,7,SyncDelta,47,1292_1.7Hz.avi,acoustic28_zero_1.7Hz.wav,acoustic,1,4.40137430000141,0,15,60,44,47,5,3,6,1,4.225681515,NaN,8722.6940291,2,NaN,NaN,NaN
15,5,7,SyncDelta,60,1249_1.7Hz.avi,acoustic20_zero_1.7Hz.wav,acoustic,2,4.48148760000004,0,15,44,5,60,47,3,13,5,4.225681515,NaN,8728.9440554,2,NaN,NaN,NaN
15,6,7,SyncDelta,56,1063_1.7Hz.avi,dar16_zero_1.7Hz.wav,dar,4,6.03127349999886,0,15,80,56,49,29,2,7,1,4.225681515,NaN,8735.4941094,2,NaN,NaN,NaN
15,7,7,SyncDelta,63,1128_1.7Hz.avi,choir26_zero_1.7Hz.wav,choir,2,3.92810259999897,0,15,72,68,12,63,4,10,4,4.225681515,NaN,8743.8441497,2,NaN,NaN,NaN
15,8,7,SyncDelta,29,1158_1.7Hz.avi,dar23_zero_1.7Hz.wav,dar,1,5.29819889999999,0,15,49,56,29,80,3,12,5,4.225681515,NaN,8749.8107824,2,NaN,NaN,NaN
15,9,7,SyncDelta,102,1012_1.7Hz.avi,orch18_zero_1.7Hz.wav,orch,4,4.05832089999967,1,15,85,30,81,102,4,14,5,4.225681515,NaN,8758.3275102,2,NaN,NaN,NaN
15,10,7,SyncDelta,68,1023_1.7Hz.avi,choir3_zero_1.7Hz.wav,choir,3,4.54175469999973,0,15,72,68,63,12,2,8,2,4.225681515,NaN,8763.8942039,2,NaN,NaN,NaN
15,11,7,SyncDelta,5,1381_1.7Hz.avi,acoustic1_zero_1.7Hz.wav,acoustic,2,3.53870459999962,0,15,47,60,5,44,3,2,2,4.225681515,NaN,8770.6108986,2,NaN,NaN,NaN
15,12,7,SyncDelta,80,1082_1.7Hz.avi,dar15_zero_1.7Hz.wav,dar,4,4.46537750000061,0,15,80,29,49,56,1,1,1,4.225681515,NaN,8775.610916,2,NaN,NaN,NaN
15,13,7,SyncDelta,12,1077_1.7Hz.avi,choir18_zero_1.7Hz.wav,choir,1,3.6697482999989,1,15,12,63,72,68,1,15,4,4.225681515,NaN,8783.2942813,2,NaN,NaN,NaN
15,14,7,SyncDelta,49,1221_1.7Hz.avi,dar21_zero_1.7Hz.wav,dar,1,4.53580140000122,0,15,29,80,49,56,3,3,1,4.225681515,NaN,8789.9109684,2,NaN,NaN,NaN
15,15,7,SyncDelta,81,1444_1.7Hz.avi,orch4_zero_1.7Hz.wav,orch,2,6.39232049999919,1,15,85,81,30,102,2,16,3,4.225681515,NaN,8797.4943693,2,NaN,NaN,NaN
15,16,7,SyncDelta,30,1016_1.7Hz.avi,orch14_zero_1.7Hz.wav,orch,3,4.90708110000014,0,15,102,81,85,30,4,9,2,4.225681515,NaN,8806.3443772,2,NaN,NaN,NaN
15,1,8,SyncTheta,46,1210_4Hz.avi,guitar48_zero_4Hz.wav,guitar,3,5.82439130000057,0,15,77,73,84,46,4,7,1,4.23479077666667,NaN,8953.5616545,2,NaN,NaN,NaN
15,2,8,SyncTheta,75,1040_4Hz.avi,willow17_zero_4Hz.wav,willow,1,6.79921090000062,0,15,92,75,32,66,2,6,3,4.23479077666667,NaN,8962.3283629,2,NaN,NaN,NaN
15,3,8,SyncTheta,86,1278_4Hz.avi,ep35_zero_4Hz.wav,ep,2,6.15992100000039,0,15,25,99,87,86,4,3,4,4.23479077666667,NaN,8971.5617293,2,NaN,NaN,NaN
15,4,8,SyncTheta,87,1142_4Hz.avi,ep3_zero_4Hz.wav,ep,3,4.34406769999987,1,15,86,99,87,25,3,12,4,4.23479077666667,NaN,8980.7450695,2,NaN,NaN,NaN
15,5,8,SyncTheta,99,1173_4Hz.avi,ep6_zero_4Hz.wav,ep,2,3.56416720000016,0,15,86,25,87,99,4,15,4,4.23479077666667,NaN,8986.7451574,2,NaN,NaN,NaN
15,6,8,SyncTheta,95,1359_4Hz.avi,synth33_zero_4Hz.wav,synth,4,3.71187230000032,1,15,89,71,51,95,4,10,1,4.23479077666667,NaN,8991.9618428,2,NaN,NaN,NaN
15,7,8,SyncTheta,84,1294_4Hz.avi,guitar6_zero_4Hz.wav,guitar,3,4.68784260000029,0,15,77,84,73,46,2,9,2,4.23479077666667,NaN,8998.8618684,2,NaN,NaN,NaN
15,8,8,SyncTheta,89,1393_4Hz.avi,synth41_zero_4Hz.wav,synth,3,4.73340570000073,1,15,95,51,89,71,3,13,2,4.23479077666667,NaN,9005.8952325,2,NaN,NaN,NaN
15,9,8,SyncTheta,32,1360_4Hz.avi,willow10_zero_4Hz.wav,willow,1,5.2212967000014,1,15,32,92,66,75,1,14,2,4.23479077666667,NaN,9012.0786361,2,NaN,NaN,NaN
15,10,8,SyncTheta,73,1369_4Hz.avi,guitar19_zero_4Hz.wav,guitar,4,5.64741979999962,0,15,77,84,73,46,3,8,3,4.23479077666667,NaN,9019.67857,2,NaN,NaN,NaN
15,11,8,SyncTheta,25,1094_4Hz.avi,ep15_zero_4Hz.wav,ep,3,5.15095210000072,1,15,87,99,25,86,3,2,4,4.23479077666667,NaN,9026.9453184,2,NaN,NaN,NaN
15,12,8,SyncTheta,51,1331_4Hz.avi,synth47_zero_4Hz.wav,synth,3,4.60288750000109,0,15,95,51,71,89,2,1,3,4.23479077666667,NaN,9034.4786995,2,NaN,NaN,NaN
15,13,8,SyncTheta,77,1008_4Hz.avi,guitar42_zero_4Hz.wav,guitar,3,3.35444420000022,1,15,84,73,77,46,3,11,4,4.23479077666667,NaN,9042.2619964,2,NaN,NaN,NaN
15,14,8,SyncTheta,71,1076_4Hz.avi,synth21_zero_4Hz.wav,synth,3,3.59459170000082,0,15,89,71,51,95,2,4,1,4.23479077666667,NaN,9048.0120469,2,NaN,NaN,NaN
15,15,8,SyncTheta,66,1215_4Hz.avi,willow18_zero_4Hz.wav,willow,1,3.63622670000041,1,15,66,75,32,92,1,16,4,4.23479077666667,NaN,9053.0287654,2,NaN,NaN,NaN
15,16,8,SyncTheta,92,1030_4Hz.avi,willow23_zero_4Hz.wav,willow,2,5.41349040000023,0,15,92,75,66,32,1,5,2,4.23479077666667,NaN,9060.0454568,2,NaN,NaN,NaN
15,1,9,NoFlicker,98,1014_half_amp.avi,choir41_half_amp.wav,choir,2,5.52932700000019,0,15,98,181,159,182,1,2,3,4.94976000666667,18.3805742183333,9297.7296855,3,NaN,NaN,NaN
15,2,9,NoFlicker,142,1155_half_amp.avi,orch9_half_amp.wav,orch,1,6.95530390000022,0,15,165,188,192,142,4,11,2,4.94976000666667,18.3805742183333,9305.6964414,3,NaN,NaN,NaN
15,3,9,NoFlicker,190,1427_half_amp.avi,acoustic46_half_amp.wav,acoustic,3,6.31469529999958,1,15,105,148,190,175,3,10,5,4.94976000666667,18.3805742183333,9315.2630879,3,NaN,NaN,NaN
15,4,9,NoFlicker,175,1103_half_amp.avi,acoustic10_half_amp.wav,acoustic,1,3.73462049999944,0,15,148,175,190,105,2,14,3,4.94976000666667,18.3805742183333,9324.0798152,3,NaN,NaN,NaN
15,5,9,NoFlicker,148,1121_half_amp.avi,acoustic26_half_amp.wav,acoustic,4,3.6750121999994,0,15,175,148,190,105,2,16,5,4.94976000666667,18.3805742183333,9330.0298807,3,NaN,NaN,NaN
15,6,9,NoFlicker,122,1289_half_amp.avi,dar3_half_amp.wav,dar,1,5.33805040000152,1,15,122,191,154,187,1,8,4,4.94976000666667,18.3805742183333,9336.2632303,3,NaN,NaN,NaN
15,7,9,NoFlicker,159,1091_half_amp.avi,choir8_half_amp.wav,choir,4,3.46842760000072,0,15,181,159,98,182,2,5,3,4.94976000666667,18.3805742183333,9343.8465399,3,NaN,NaN,NaN
15,8,9,NoFlicker,154,1074_half_amp.avi,dar5_half_amp.wav,dar,2,3.37865500000044,1,15,122,154,191,187,2,9,4,4.94976000666667,18.3805742183333,9349.2965985,3,NaN,NaN,NaN
15,9,9,NoFlicker,188,1036_half_amp.avi,orch26_half_amp.wav,orch,4,5.01185749999968,1,15,192,165,142,188,4,12,5,4.94976000666667,18.3805742183333,9354.3966218,3,NaN,NaN,NaN
15,10,9,NoFlicker,181,1168_half_amp.avi,choir1_half_amp.wav,choir,2,5.7273755999995,0,15,98,159,181,182,3,3,4,4.94976000666667,18.3805742183333,9361.0799775,3,NaN,NaN,NaN
15,11,9,NoFlicker,105,1003_half_amp.avi,acoustic6_half_amp.wav,acoustic,1,4.49078670000017,0,15,190,105,148,175,2,4,5,4.94976000666667,18.3805742183333,9369.5300034,3,NaN,NaN,NaN
15,12,9,NoFlicker,187,1164_half_amp.avi,dar12_half_amp.wav,dar,4,4.0732967999993,1,15,154,191,122,187,4,1,4,4.94976000666667,18.3805742183333,9375.8967229,3,NaN,NaN,NaN
15,13,9,NoFlicker,182,1277_half_amp.avi,choir39_half_amp.wav,choir,2,7.1339038999995,0,15,181,98,159,182,4,13,2,4.94976000666667,18.3805742183333,9381.9467605,3,NaN,NaN,NaN
15,14,9,NoFlicker,191,1314_half_amp.avi,dar19_half_amp.wav,dar,4,3.52004830000078,1,15,187,122,154,191,4,7,2,4.94976000666667,18.3805742183333,9390.6634509,3,NaN,NaN,NaN
15,15,9,NoFlicker,192,1231_half_amp.avi,orch32_half_amp.wav,orch,2,3.72526710000056,1,15,165,192,142,188,2,15,5,4.94976000666667,18.3805742183333,9396.1467829,3,NaN,NaN,NaN
15,16,9,NoFlicker,165,1410_half_amp.avi,orch43_half_amp.wav,orch,3,3.82820869999887,0,15,188,192,142,165,4,6,4,4.94976000666667,18.3805742183333,9403.0467747,3,NaN,NaN,NaN
15,1,10,SyncTheta,67,1310_4Hz.avi,guitar21_zero_4Hz.wav,guitar,3,7.59029290000035,0,15,67,93,53,15,1,8,2,4.28651629333333,18.3805742183333,9545.1307483,3,NaN,NaN,NaN
15,2,10,SyncTheta,37,1237_4Hz.avi,willow15_zero_4Hz.wav,willow,1,9.73914440000044,1,15,37,108,55,27,1,6,4,4.28651629333333,18.3805742183333,9555.414125,3,NaN,NaN,NaN
15,3,10,SyncTheta,65,1013_4Hz.avi,ep22_zero_4Hz.wav,ep,3,5.52006930000061,0,15,24,26,106,65,4,4,4,4.28651629333333,18.3805742183333,9567.2641494,3,NaN,NaN,NaN
15,4,10,SyncTheta,26,1190_4Hz.avi,ep7_zero_4Hz.wav,ep,3,3.58448320000025,0,15,65,106,24,26,4,15,4,4.28651629333333,18.3805742183333,9574.9975092,3,NaN,NaN,NaN
15,5,10,SyncTheta,106,1113_4Hz.avi,ep29_zero_4Hz.wav,ep,4,7.96668350000073,0,15,26,24,106,65,3,16,4,4.28651629333333,18.3805742183333,9581.4309087,3,NaN,NaN,NaN
15,6,10,SyncTheta,50,1049_4Hz.avi,synth43_zero_4Hz.wav,synth,3,4.11979630000133,1,15,109,54,50,70,3,7,1,4.28651629333333,18.3805742183333,9592.0975924,3,NaN,NaN,NaN
15,7,10,SyncTheta,53,1197_4Hz.avi,guitar46_zero_4Hz.wav,guitar,2,4.18645110000034,1,15,15,53,93,67,2,12,2,4.28651629333333,18.3805742183333,9598.3976683,3,NaN,NaN,NaN
15,8,10,SyncTheta,109,1299_4Hz.avi,synth18_zero_4Hz.wav,synth,2,4.17878199999905,1,15,50,109,54,70,2,9,4,4.28651629333333,18.3805742183333,9605.0643027,3,NaN,NaN,NaN
15,9,10,SyncTheta,27,1202_4Hz.avi,willow16_zero_4Hz.wav,willow,2,4.81407260000015,0,15,108,55,37,27,4,11,2,4.28651629333333,18.3805742183333,9611.1810094,3,NaN,NaN,NaN
15,10,10,SyncTheta,15,1422_4Hz.avi,guitar37_zero_4Hz.wav,guitar,3,4.3140009000017,0,15,67,53,93,15,4,10,3,4.28651629333333,18.3805742183333,9618.297716,3,NaN,NaN,NaN
15,11,10,SyncTheta,24,1217_4Hz.avi,ep44_zero_4Hz.wav,ep,4,3.8530623000006,1,15,26,106,65,24,4,3,4,4.28651629333333,18.3805742183333,9625.514437,3,NaN,NaN,NaN
15,12,10,SyncTheta,54,1181_4Hz.avi,synth12_zero_4Hz.wav,synth,3,5.51697550000063,1,15,109,50,54,70,3,2,3,4.28651629333333,18.3805742183333,9631.3143773,3,NaN,NaN,NaN
15,13,10,SyncTheta,93,1046_4Hz.avi,guitar18_zero_4Hz.wav,guitar,1,3.67857720000029,0,15,67,15,93,53,3,13,1,4.28651629333333,18.3805742183333,9640.1810843,3,NaN,NaN,NaN
15,14,10,SyncTheta,70,1093_4Hz.avi,synth6_zero_4Hz.wav,synth,1,5.61192510000001,0,15,109,70,54,50,2,5,1,4.28651629333333,18.3805742183333,9645.9811436,3,NaN,NaN,NaN
15,15,10,SyncTheta,108,1415_4Hz.avi,willow3_zero_4Hz.wav,willow,2,3.39028549999966,1,15,55,108,37,27,2,14,1,4.28651629333333,18.3805742183333,9654.0311673,3,NaN,NaN,NaN
15,16,10,SyncTheta,55,1044_4Hz.avi,willow4_zero_4Hz.wav,willow,3,4.23187420000068,1,15,37,27,55,108,3,1,2,4.28651629333333,18.3805742183333,9659.9645217,3,NaN,NaN,NaN
15,1,11,SyncDelta,62,1058_1.7Hz.avi,choir19_zero_1.7Hz.wav,choir,2,5.49587350000002,1,15,69,62,19,52,2,5,2,4.34327439333333,18.3805742183333,9819.6318246,3,NaN,NaN,NaN
15,2,11,SyncDelta,57,1309_1.7Hz.avi,orch7_zero_1.7Hz.wav,orch,4,4.91825079999944,1,15,91,74,36,57,4,2,4,4.34327439333333,18.3805742183333,9827.4652449,3,NaN,NaN,NaN
15,3,11,SyncDelta,39,1061_1.7Hz.avi,acoustic11_zero_1.7Hz.wav,acoustic,2,5.21010279999973,0,15,39,58,20,23,1,4,4,4.34327439333333,18.3805742183333,9834.131885,3,NaN,NaN,NaN
15,4,11,SyncDelta,58,1323_1.7Hz.avi,acoustic29_zero_1.7Hz.wav,acoustic,3,5.00554829999965,0,15,39,23,20,58,4,10,5,4.34327439333333,18.3805742183333,9841.4152747,3,NaN,NaN,NaN
15,5,11,SyncDelta,20,1236_1.7Hz.avi,acoustic25_zero_1.7Hz.wav,acoustic,1,4.29313290000027,0,15,23,20,39,58,2,16,5,4.34327439333333,18.3805742183333,9847.8319435,3,NaN,NaN,NaN
15,6,11,SyncDelta,45,1203_1.7Hz.avi,dar2_zero_1.7Hz.wav,dar,3,4.30296710000039,1,15,34,64,45,43,3,9,4,4.34327439333333,18.3805742183333,9853.8653259,3,NaN,NaN,NaN
15,7,11,SyncDelta,69,1216_1.7Hz.avi,choir32_zero_1.7Hz.wav,choir,3,4.51457590000064,0,15,52,69,19,62,2,12,3,4.34327439333333,18.3805742183333,9860.2820204,3,NaN,NaN,NaN
15,8,11,SyncDelta,34,1319_1.7Hz.avi,dar22_zero_1.7Hz.wav,dar,3,3.89227740000024,1,15,45,43,34,64,3,11,5,4.34327439333333,18.3805742183333,9866.2987414,3,NaN,NaN,NaN
15,9,11,SyncDelta,74,1337_1.7Hz.avi,orch24_zero_1.7Hz.wav,orch,3,4.9713326000001,0,15,74,57,91,36,1,13,1,4.34327439333333,18.3805742183333,9872.8820696,3,NaN,NaN,NaN
15,10,11,SyncDelta,52,1387_1.7Hz.avi,choir2_zero_1.7Hz.wav,choir,4,4.16093419999925,0,15,52,62,19,69,1,6,2,4.34327439333333,18.3805742183333,9880.4654398,3,NaN,NaN,NaN
15,11,11,SyncDelta,23,1330_1.7Hz.avi,acoustic47_zero_1.7Hz.wav,acoustic,3,3.43445790000078,1,15,39,20,23,58,3,3,5,4.34327439333333,18.3805742183333,9887.4987972,3,NaN,NaN,NaN
15,12,11,SyncDelta,43,1141_1.7Hz.avi,dar13_zero_1.7Hz.wav,dar,2,3.3119211000012,0,15,43,64,45,34,1,7,1,4.34327439333333,18.3805742183333,9893.1321235,3,NaN,NaN,NaN
15,13,11,SyncDelta,19,1247_1.7Hz.avi,choir38_zero_1.7Hz.wav,choir,4,3.97767060000115,0,15,62,19,69,52,2,14,3,4.34327439333333,18.3805742183333,9898.0988413,3,NaN,NaN,NaN
15,14,11,SyncDelta,64,1098_1.7Hz.avi,dar11_zero_1.7Hz.wav,dar,4,4.06686140000056,1,15,43,45,34,64,4,8,1,4.34327439333333,18.3805742183333,9905.0155413,3,NaN,NaN,NaN
15,15,11,SyncDelta,91,1340_1.7Hz.avi,orch46_zero_1.7Hz.wav,orch,3,4.69913719999931,0,15,74,91,36,57,2,15,1,4.34327439333333,18.3805742183333,9911.7488697,3,NaN,NaN,NaN
15,16,11,SyncDelta,36,1284_1.7Hz.avi,orch29_zero_1.7Hz.wav,orch,4,6.55570090000037,0,15,91,57,36,74,3,1,3,4.34327439333333,18.3805742183333,9918.39896,3,NaN,NaN,NaN
15,1,12,AsyncTheta,172,1350_4Hz.avi,guitar10_oneeighty_4Hz.wav,guitar,2,8.16006190000007,0,15,170,183,161,172,4,2,2,4.41934425666667,18.3805742183333,10075.0162362,3,NaN,NaN,NaN
15,2,12,AsyncTheta,149,1200_4Hz.avi,willow8_oneeighty_4Hz.wav,willow,3,4.29089200000089,0,15,171,157,156,149,4,5,2,4.41934425666667,18.3805742183333,10086.0329195,3,NaN,NaN,NaN
15,3,12,AsyncTheta,173,1348_4Hz.avi,ep31_oneeighty_4Hz.wav,ep,3,5.77197530000012,0,15,173,176,144,180,1,12,3,4.41934425666667,18.3805742183333,10092.5829472,3,NaN,NaN,NaN
15,4,12,AsyncTheta,144,1255_4Hz.avi,ep28_oneeighty_4Hz.wav,ep,3,5.50515439999981,0,15,144,173,180,176,1,13,3,4.41934425666667,18.3805742183333,10100.4663208,3,NaN,NaN,NaN
15,5,12,AsyncTheta,176,1405_4Hz.avi,ep46_oneeighty_4Hz.wav,ep,2,5.82440820000011,0,15,180,144,173,176,4,16,1,4.41934425666667,18.3805742183333,10108.6997156,3,NaN,NaN,NaN
15,6,12,AsyncTheta,155,1042_4Hz.avi,synth10_oneeighty_4Hz.wav,synth,4,4.02606080000078,1,15,140,129,184,155,4,9,4,4.41934425666667,18.3805742183333,10116.4497691,3,NaN,NaN,NaN
15,7,12,AsyncTheta,170,1062_4Hz.avi,guitar3_oneeighty_4Hz.wav,guitar,3,4.95709100000022,1,15,161,183,170,172,3,11,4,4.41934425666667,18.3805742183333,10123.1997424,3,NaN,NaN,NaN
15,8,12,AsyncTheta,140,1270_4Hz.avi,synth17_oneeighty_4Hz.wav,synth,4,5.99576499999966,0,15,184,155,140,129,3,10,4,4.41934425666667,18.3805742183333,10129.749797,3,NaN,NaN,NaN
15,9,12,AsyncTheta,171,1280_4Hz.avi,willow19_oneeighty_4Hz.wav,willow,1,3.8763971999997,0,15,156,157,171,149,3,8,4,4.41934425666667,18.3805742183333,10138.4498202,3,NaN,NaN,NaN
15,10,12,AsyncTheta,183,1374_4Hz.avi,guitar16_oneeighty_4Hz.wav,guitar,2,5.48336259999996,0,15,172,170,161,183,4,3,3,4.41934425666667,18.3805742183333,10145.5165884,3,NaN,NaN,NaN
15,11,12,AsyncTheta,180,1006_4Hz.avi,ep4_oneeighty_4Hz.wav,ep,2,6.52194240000063,0,15,180,144,173,176,1,7,3,4.41934425666667,18.3805742183333,10153.6166383,3,NaN,NaN,NaN
15,12,12,AsyncTheta,184,1052_4Hz.avi,synth40_oneeighty_4Hz.wav,synth,4,3.34248710000065,1,15,155,140,129,184,4,4,1,4.41934425666667,18.3805742183333,10162.8333033,3,NaN,NaN,NaN
15,13,12,AsyncTheta,161,1433_4Hz.avi,guitar2_oneeighty_4Hz.wav,guitar,4,4.06553809999969,1,15,170,172,183,161,4,14,3,4.41934425666667,18.3805742183333,10167.9332904,3,NaN,NaN,NaN
15,14,12,AsyncTheta,129,1286_4Hz.avi,synth30_oneeighty_4Hz.wav,synth,4,3.49392819999957,0,15,155,129,140,184,2,6,1,4.41934425666667,18.3805742183333,10174.049988,3,NaN,NaN,NaN
15,15,12,AsyncTheta,156,1060_4Hz.avi,willow7_oneeighty_4Hz.wav,willow,2,4.58535959999972,0,15,149,157,171,156,4,15,4,4.41934425666667,18.3805742183333,10179.2333381,3,NaN,NaN,NaN
15,16,12,AsyncTheta,157,1225_4Hz.avi,willow14_oneeighty_4Hz.wav,willow,1,3.55482039999879,0,15,149,171,157,156,3,1,2,4.41934425666667,18.3805742183333,10186.7167188,3,NaN,NaN,NaN
