ParticipantID,TrialNumber,BlockNumber,Condition,ClipID,VideoFile,SoundFile,SoundCategory,Response,RT,Accuracy,ConditionID,Frame1,Frame2,Frame3,Frame4,CorrectKey,EncodingPosition,Rating,BlockDuration,ExperimentDuration,MemoryTestOnset,RunNumber,Age,Handedness,Sex
21,1,1,SyncDelta,93,1046_1.7Hz.avi,guitar18_zero_1.7Hz.wav,guitar,4,8.83909210000002,0,21,73,53,93,7,3,2,2,7.865236265,NaN,3982.9617179,1,NaN,NaN,NaN
21,2,1,SyncDelta,16,1442_1.7Hz.avi,ep34_zero_1.7Hz.wav,ep,3,17.6469916000001,1,21,86,106,16,26,3,13,3,7.865236265,NaN,3994.3117604,1,NaN,NaN,NaN
21,3,1,SyncDelta,7,1017_1.7Hz.avi,guitar47_zero_1.7Hz.wav,guitar,4,14.3755695999998,0,21,73,53,7,93,3,5,5,7.865236265,NaN,4014.6452141,1,NaN,NaN,NaN
21,4,1,SyncDelta,53,1197_1.7Hz.avi,guitar46_zero_1.7Hz.wav,guitar,2,12.6629422999999,1,21,73,53,93,7,2,10,4,7.865236265,NaN,4031.4619253,1,NaN,NaN,NaN
21,5,1,SyncDelta,108,1415_1.7Hz.avi,willow3_zero_1.7Hz.wav,willow,4,5.86084380000011,0,21,66,108,22,37,2,8,2,7.865236265,NaN,4046.7119822,1,NaN,NaN,NaN
21,6,1,SyncDelta,109,1299_1.7Hz.avi,synth18_zero_1.7Hz.wav,synth,3,6.31900419999965,0,21,71,109,35,54,2,1,4,7.865236265,NaN,4054.9120271,1,NaN,NaN,NaN
21,7,1,SyncDelta,71,1076_1.7Hz.avi,synth21_zero_1.7Hz.wav,synth,3,9.98964799999976,0,21,35,109,54,71,4,7,3,7.865236265,NaN,4064.5453986,1,NaN,NaN,NaN
21,8,1,SyncDelta,54,1181_1.7Hz.avi,synth12_zero_1.7Hz.wav,synth,3,12.4715720999998,0,21,54,109,71,35,1,3,4,7.865236265,NaN,4077.362128,1,NaN,NaN,NaN
21,9,1,SyncDelta,22,1212_1.7Hz.avi,willow20_zero_1.7Hz.wav,willow,1,5.39420560000008,0,21,37,22,66,108,2,6,3,7.865236265,NaN,4092.5455532,1,NaN,NaN,NaN
21,10,1,SyncDelta,73,1369_1.7Hz.avi,guitar19_zero_1.7Hz.wav,guitar,2,10.9923127000002,1,21,7,73,53,93,2,11,3,7.865236265,NaN,4100.1455561,1,NaN,NaN,NaN
21,11,1,SyncDelta,26,1190_1.7Hz.avi,ep7_zero_1.7Hz.wav,ep,4,5.55944110000019,0,21,106,16,26,86,3,15,5,7.865236265,NaN,4112.6789515,1,NaN,NaN,NaN
21,12,1,SyncDelta,66,1215_1.7Hz.avi,willow18_zero_1.7Hz.wav,willow,1,3.75210199999947,1,21,66,108,22,37,1,16,4,7.865236265,NaN,4121.3289868,1,NaN,NaN,NaN
21,13,1,SyncDelta,35,1039_1.7Hz.avi,synth5_zero_1.7Hz.wav,synth,1,6.07980789999965,1,21,35,109,71,54,1,4,1,7.865236265,NaN,4128.0457126,1,NaN,NaN,NaN
21,14,1,SyncDelta,106,1113_1.7Hz.avi,ep29_zero_1.7Hz.wav,ep,4,4.37574740000036,1,21,86,16,26,106,4,9,5,7.865236265,NaN,4136.2957372,1,NaN,NaN,NaN
21,15,1,SyncDelta,37,1237_1.7Hz.avi,willow15_zero_1.7Hz.wav,willow,2,7.6979339999998,1,21,66,37,22,108,2,12,3,7.865236265,NaN,4142.012418,1,NaN,NaN,NaN
21,16,1,SyncDelta,86,1278_1.7Hz.avi,ep35_zero_1.7Hz.wav,ep,3,4.33763670000008,0,21,86,106,26,16,1,14,5,7.865236265,NaN,4152.3124591,1,NaN,NaN,NaN
21,1,2,AsyncTheta,121,1354_4Hz.avi,choir22_oneeighty_4Hz.wav,choir,1,4.57907879999948,0,21,160,121,78,88,2,10,2,5.91101081,NaN,4384.2135403,1,NaN,NaN,NaN
21,2,2,AsyncTheta,107,1265_4Hz.avi,acoustic16_oneeighty_4Hz.wav,acoustic,2,3.71835820000069,0,21,107,96,83,169,1,5,3,5.91101081,NaN,4391.1635412,1,NaN,NaN,NaN
21,3,2,AsyncTheta,160,1421_4Hz.avi,choir13_oneeighty_4Hz.wav,choir,4,2.9128284999997,0,21,160,88,78,121,1,13,3,5.91101081,NaN,4396.7469252,1,NaN,NaN,NaN
21,4,2,AsyncTheta,88,1191_4Hz.avi,choir20_oneeighty_4Hz.wav,choir,2,5.7697747000002,0,21,88,78,160,121,1,14,2,5.91101081,NaN,4401.3135873,1,NaN,NaN,NaN
21,5,2,AsyncTheta,134,1026_4Hz.avi,orch16_oneeighty_4Hz.wav,orch,4,5.51618789999975,0,21,137,134,174,143,2,6,1,5.91101081,NaN,4410.1302912,1,NaN,NaN,NaN
21,6,2,AsyncTheta,103,1084_4Hz.avi,dar20_oneeighty_4Hz.wav,dar,4,7.33099880000009,0,21,103,114,126,162,1,1,3,5.91101081,NaN,4418.3803573,1,NaN,NaN,NaN
21,7,2,AsyncTheta,126,1298_4Hz.avi,dar9_oneeighty_4Hz.wav,dar,4,6.16584700000021,0,21,162,103,126,114,3,12,1,5.91101081,NaN,4428.7137446,1,NaN,NaN,NaN
21,8,2,AsyncTheta,162,1358_4Hz.avi,dar7_oneeighty_4Hz.wav,dar,1,2.80216629999995,1,21,162,103,114,126,1,2,5,5.91101081,NaN,4437.3804133,1,NaN,NaN,NaN
21,9,2,AsyncTheta,174,1119_4Hz.avi,orch45_oneeighty_4Hz.wav,orch,1,3.88555499999984,1,21,174,137,143,134,1,4,2,5.91101081,NaN,4442.4304726,1,NaN,NaN,NaN
21,10,2,AsyncTheta,78,1301_4Hz.avi,choir11_oneeighty_4Hz.wav,choir,4,7.47072200000002,0,21,88,160,78,121,3,15,5,5.91101081,NaN,4449.4138399,1,NaN,NaN,NaN
21,11,2,AsyncTheta,83,1139_4Hz.avi,acoustic27_oneeighty_4Hz.wav,acoustic,2,3.97061320000012,0,21,83,107,96,169,1,16,5,5.91101081,NaN,4458.6638852,1,NaN,NaN,NaN
21,12,2,AsyncTheta,137,1303_4Hz.avi,orch10_oneeighty_4Hz.wav,orch,1,5.71783570000025,0,21,134,143,174,137,4,9,2,5.91101081,NaN,4464.1639101,1,NaN,NaN,NaN
21,13,2,AsyncTheta,114,1322_4Hz.avi,dar14_oneeighty_4Hz.wav,dar,4,6.59478500000023,0,21,126,114,162,103,2,8,3,5.91101081,NaN,4472.7472569,1,NaN,NaN,NaN
21,14,2,AsyncTheta,169,1083_4Hz.avi,acoustic43_oneeighty_4Hz.wav,acoustic,1,7.43054340000072,0,21,83,96,169,107,3,3,4,5.91101081,NaN,4481.38063,1,NaN,NaN,NaN
21,15,2,AsyncTheta,143,1127_4Hz.avi,orch11_oneeighty_4Hz.wav,orch,1,7.64947929999926,1,21,143,134,174,137,1,7,3,5.91101081,NaN,4491.4473334,1,NaN,NaN,NaN
21,16,2,AsyncTheta,96,1027_4Hz.avi,acoustic40_oneeighty_4Hz.wav,acoustic,2,9.72724480000034,0,21,107,169,83,96,4,11,5,5.91101081,NaN,4501.6807093,1,NaN,NaN,NaN
21,1,3,SyncTheta,38,1184_4Hz.avi,choir33_zero_4Hz.wav,choir,1,9.23547529999996,0,21,10,68,38,62,3,2,4,5.69239690333333,NaN,4711.3983878,1,NaN,NaN,NaN
21,2,3,SyncTheta,1,1064_4Hz.avi,acoustic12_zero_4Hz.wav,acoustic,3,8.87453719999939,0,21,21,39,47,1,4,6,5,5.69239690333333,NaN,4722.3484391,1,NaN,NaN,NaN
21,3,3,SyncTheta,10,1179_4Hz.avi,choir4_zero_4Hz.wav,choir,2,3.30046149999998,1,21,68,10,38,62,2,3,4,5.69239690333333,NaN,4733.0984552,1,NaN,NaN,NaN
21,4,3,SyncTheta,68,1023_4Hz.avi,choir3_zero_4Hz.wav,choir,2,9.93589650000013,0,21,62,10,38,68,4,8,3,5.69239690333333,NaN,4738.1318175,1,NaN,NaN,NaN
21,5,3,SyncTheta,74,1337_4Hz.avi,orch24_zero_4Hz.wav,orch,3,14.5298435000004,1,21,42,17,74,85,3,9,2,5.69239690333333,NaN,4750.8818747,1,NaN,NaN,NaN
21,6,3,SyncTheta,2,1431_4Hz.avi,dar24_zero_4Hz.wav,dar,2,6.41333360000044,0,21,40,45,56,2,4,5,5,5.69239690333333,NaN,4768.5486205,1,NaN,NaN,NaN
21,7,3,SyncTheta,45,1203_4Hz.avi,dar2_zero_4Hz.wav,dar,4,5.33913819999998,1,21,56,2,40,45,4,16,3,5.69239690333333,NaN,4777.8653614,1,NaN,NaN,NaN
21,8,3,SyncTheta,40,1239_4Hz.avi,dar6_zero_4Hz.wav,dar,2,2.27035960000012,1,21,2,40,56,45,2,10,1,5.69239690333333,NaN,4785.3987285,1,NaN,NaN,NaN
21,9,3,SyncTheta,17,1162_4Hz.avi,orch1_zero_4Hz.wav,orch,1,5.86081860000013,0,21,85,42,17,74,3,4,3,5.69239690333333,NaN,4790.6987241,1,NaN,NaN,NaN
21,10,3,SyncTheta,62,1058_4Hz.avi,choir19_zero_4Hz.wav,choir,1,4.56659819999913,1,21,62,38,10,68,1,13,2,5.69239690333333,NaN,4798.2320949,1,NaN,NaN,NaN
21,11,3,SyncTheta,21,1112_4Hz.avi,acoustic32_zero_4Hz.wav,acoustic,4,8.8273165999999,0,21,21,1,47,39,1,14,2,5.69239690333333,NaN,4805.91546,1,NaN,NaN,NaN
21,12,3,SyncTheta,42,1339_4Hz.avi,orch31_zero_4Hz.wav,orch,2,4.72036979999939,1,21,74,42,85,17,2,15,4,5.69239690333333,NaN,4817.3155119,1,NaN,NaN,NaN
21,13,3,SyncTheta,56,1063_4Hz.avi,dar16_zero_4Hz.wav,dar,4,4.12433210000017,0,21,40,2,56,45,3,12,1,5.69239690333333,NaN,4824.3488766,1,NaN,NaN,NaN
21,14,3,SyncTheta,47,1292_4Hz.avi,acoustic28_zero_4Hz.wav,acoustic,4,7.8293776999999,0,21,1,39,47,21,3,1,5,5.69239690333333,NaN,4831.8322497,1,NaN,NaN,NaN
21,15,3,SyncTheta,85,1383_4Hz.avi,orch23_zero_4Hz.wav,orch,3,6.4977944000002,0,21,85,42,74,17,1,11,4,5.69239690333333,NaN,4841.0822889,1,NaN,NaN,NaN
21,16,3,SyncTheta,39,1061_4Hz.avi,acoustic11_zero_4Hz.wav,acoustic,4,3.38193299999966,0,21,39,21,47,1,1,7,4,5.69239690333333,NaN,4849.6490302,1,NaN,NaN,NaN
21,1,4,NoFlicker,151,1259_half_amp.avi,guitar43_half_amp.wav,guitar,3,9.09936210000069,0,21,151,115,172,168,1,2,1,6.36449485333333,NaN,5083.6334246,1,NaN,NaN,NaN
21,2,4,NoFlicker,138,1149_half_amp.avi,ep2_half_amp.wav,ep,1,7.40104299999985,1,21,138,123,176,166,1,5,4,6.36449485333333,NaN,5094.133463,1,NaN,NaN,NaN
21,3,4,NoFlicker,168,1204_half_amp.avi,guitar36_half_amp.wav,guitar,1,6.37815659999978,1,21,168,115,151,172,1,11,4,6.36449485333333,NaN,5103.8834784,1,NaN,NaN,NaN
21,4,4,NoFlicker,115,1370_half_amp.avi,guitar9_half_amp.wav,guitar,3,9.85716200000024,0,21,115,151,168,172,1,13,3,6.36449485333333,NaN,5111.9668879,1,NaN,NaN,NaN
21,5,4,NoFlicker,153,1157_half_amp.avi,willow1_half_amp.wav,willow,3,9.74072150000029,0,21,130,157,119,153,4,9,4,6.36449485333333,NaN,5123.4502285,1,NaN,NaN,NaN
21,6,4,NoFlicker,128,1269_half_amp.avi,synth14_half_amp.wav,synth,4,5.77811250000013,1,21,155,125,135,128,4,1,5,6.36449485333333,NaN,5134.8336167,1,NaN,NaN,NaN
21,7,4,NoFlicker,135,1154_half_amp.avi,synth38_half_amp.wav,synth,4,5.10021079999933,0,21,135,128,125,155,1,12,2,6.36449485333333,NaN,5142.8003654,1,NaN,NaN,NaN
21,8,4,NoFlicker,125,1050_half_amp.avi,synth36_half_amp.wav,synth,3,7.89165529999991,0,21,128,125,135,155,2,4,2,6.36449485333333,NaN,5150.7837196,1,NaN,NaN,NaN
21,9,4,NoFlicker,130,1081_half_amp.avi,willow5_half_amp.wav,willow,2,5.14811030000055,1,21,153,130,119,157,2,7,3,6.36449485333333,NaN,5161.2170693,1,NaN,NaN,NaN
21,10,4,NoFlicker,172,1350_half_amp.avi,guitar10_half_amp.wav,guitar,2,7.34024749999935,0,21,115,168,151,172,4,16,2,6.36449485333333,NaN,5169.0837766,1,NaN,NaN,NaN
21,11,4,NoFlicker,166,1227_half_amp.avi,ep5_half_amp.wav,ep,1,6.74754899999971,1,21,166,138,176,123,1,10,4,6.36449485333333,NaN,5178.783814,1,NaN,NaN,NaN
21,12,4,NoFlicker,119,1189_half_amp.avi,willow11_half_amp.wav,willow,2,9.44959340000059,0,21,130,153,119,157,3,15,4,6.36449485333333,NaN,5187.1671946,1,NaN,NaN,NaN
21,13,4,NoFlicker,155,1042_half_amp.avi,synth10_half_amp.wav,synth,2,6.90708410000025,0,21,128,135,125,155,4,8,2,6.36449485333333,NaN,5199.0839416,1,NaN,NaN,NaN
21,14,4,NoFlicker,176,1405_half_amp.avi,ep46_half_amp.wav,ep,4,9.36146390000067,0,21,123,176,166,138,2,3,2,6.36449485333333,NaN,5209.3339503,1,NaN,NaN,NaN
21,15,4,NoFlicker,157,1225_half_amp.avi,willow14_half_amp.wav,willow,1,5.18603279999934,0,21,153,119,157,130,3,14,4,6.36449485333333,NaN,5220.9506785,1,NaN,NaN,NaN
21,16,4,NoFlicker,123,1067_half_amp.avi,ep37_half_amp.wav,ep,4,5.70368400000007,1,21,166,138,176,123,4,6,5,6.36449485333333,NaN,5229.2673816,1,NaN,NaN,NaN
21,1,5,AsyncTheta,76,1293_4Hz.avi,choir23_oneeighty_4Hz.wav,choir,4,8.11649189999935,1,21,181,124,182,76,4,1,4,5.781145845,NaN,5859.9360948,2,NaN,NaN,NaN
21,2,5,AsyncTheta,113,1037_4Hz.avi,acoustic23_oneeighty_4Hz.wav,acoustic,4,4.67058540000016,0,21,79,175,113,190,3,7,5,5.781145845,NaN,5870.2861404,2,NaN,NaN,NaN
21,3,5,AsyncTheta,124,1183_4Hz.avi,choir24_oneeighty_4Hz.wav,choir,1,6.95017189999999,0,21,181,124,76,182,2,2,3,5.781145845,NaN,5877.8195064,2,NaN,NaN,NaN
21,4,5,AsyncTheta,182,1277_4Hz.avi,choir39_oneeighty_4Hz.wav,choir,2,8.97592440000062,1,21,124,182,181,76,2,12,1,5.781145845,NaN,5887.1528819,2,NaN,NaN,NaN
21,5,5,AsyncTheta,110,1443_4Hz.avi,orch3_oneeighty_4Hz.wav,orch,1,7.59233260000019,0,21,192,110,145,188,2,6,4,5.781145845,NaN,5898.2195983,2,NaN,NaN,NaN
21,6,5,AsyncTheta,191,1314_4Hz.avi,dar19_oneeighty_4Hz.wav,dar,2,5.15482019999945,0,21,82,187,191,136,3,3,3,5.781145845,NaN,5908.8363446,2,NaN,NaN,NaN
21,7,5,AsyncTheta,187,1164_4Hz.avi,dar12_oneeighty_4Hz.wav,dar,3,6.73392009999952,1,21,136,191,187,82,3,14,1,5.781145845,NaN,5916.8696859,2,NaN,NaN,NaN
21,8,5,AsyncTheta,136,1175_4Hz.avi,dar4_oneeighty_4Hz.wav,dar,4,8.48068539999986,1,21,187,82,191,136,4,10,2,5.781145845,NaN,5925.6697212,2,NaN,NaN,NaN
21,9,5,AsyncTheta,192,1231_4Hz.avi,orch32_oneeighty_4Hz.wav,orch,3,6.26198149999982,1,21,145,188,192,110,3,4,5,5.781145845,NaN,5937.0531207,2,NaN,NaN,NaN
21,10,5,AsyncTheta,181,1168_4Hz.avi,choir1_oneeighty_4Hz.wav,choir,4,5.4929946000002,0,21,76,124,181,182,3,13,4,5.781145845,NaN,5946.3698188,2,NaN,NaN,NaN
21,11,5,AsyncTheta,79,1071_4Hz.avi,acoustic17_oneeighty_4Hz.wav,acoustic,4,7.38201899999967,1,21,113,175,190,79,4,16,3,5.781145845,NaN,5953.7198519,2,NaN,NaN,NaN
21,12,5,AsyncTheta,145,1352_4Hz.avi,orch39_oneeighty_4Hz.wav,orch,4,5.47781599999962,1,21,110,188,192,145,4,9,1,5.781145845,NaN,5964.4032355,2,NaN,NaN,NaN
21,13,5,AsyncTheta,82,1449_4Hz.avi,dar17_oneeighty_4Hz.wav,dar,1,3.19534900000053,1,21,82,136,191,187,1,11,3,5.781145845,NaN,5972.4199467,2,NaN,NaN,NaN
21,14,5,AsyncTheta,175,1103_4Hz.avi,acoustic10_oneeighty_4Hz.wav,acoustic,1,2.94664279999961,1,21,175,79,190,113,1,5,4,5.781145845,NaN,5977.4533253,2,NaN,NaN,NaN
21,15,5,AsyncTheta,188,1036_4Hz.avi,orch26_oneeighty_4Hz.wav,orch,4,7.01054680000016,0,21,145,188,192,110,2,8,3,5.781145845,NaN,5982.6699978,2,NaN,NaN,NaN
21,16,5,AsyncTheta,190,1427_4Hz.avi,acoustic46_oneeighty_4Hz.wav,acoustic,3,9.14043099999981,1,21,113,79,190,175,3,15,4,5.781145845,NaN,5992.3867268,2,NaN,NaN,NaN
21,1,6,SyncDelta,77,1008_1.7Hz.avi,guitar42_zero_1.7Hz.wav,guitar,4,11.0055136999999,0,21,77,3,84,67,1,3,4,5.52281683666667,NaN,6184.0375822,2,NaN,NaN,NaN
21,2,6,SyncDelta,65,1013_1.7Hz.avi,ep22_zero_1.7Hz.wav,ep,1,8.08879350000007,0,21,6,99,87,65,4,9,4,5.52281683666667,NaN,6196.6043278,2,NaN,NaN,NaN
21,3,6,SyncDelta,67,1310_1.7Hz.avi,guitar21_zero_1.7Hz.wav,guitar,3,10.5481400000008,0,21,84,67,77,3,2,4,2,5.52281683666667,NaN,6207.5710137,2,NaN,NaN,NaN
21,4,6,SyncDelta,84,1294_1.7Hz.avi,guitar6_zero_1.7Hz.wav,guitar,4,5.04210049999983,0,21,84,77,67,3,1,6,2,5.52281683666667,NaN,6220.2377736,2,NaN,NaN,NaN
21,5,6,SyncDelta,92,1030_1.7Hz.avi,willow23_zero_1.7Hz.wav,willow,1,12.9880970000004,0,21,55,75,92,18,3,8,3,5.52281683666667,NaN,6227.6711147,2,NaN,NaN,NaN
21,6,6,SyncDelta,70,1093_1.7Hz.avi,synth6_zero_1.7Hz.wav,synth,4,6.50069200000053,0,21,95,70,89,8,2,2,3,5.52281683666667,NaN,6242.7211786,2,NaN,NaN,NaN
21,7,6,SyncDelta,8,1252_1.7Hz.avi,synth25_zero_1.7Hz.wav,synth,2,4.61144310000054,0,21,95,70,8,89,3,16,2,5.52281683666667,NaN,6250.6045755,2,NaN,NaN,NaN
21,8,6,SyncDelta,89,1393_1.7Hz.avi,synth41_zero_1.7Hz.wav,synth,3,12.3310773999992,0,21,70,8,95,89,4,5,2,5.52281683666667,NaN,6257.3879155,2,NaN,NaN,NaN
21,9,6,SyncDelta,55,1044_1.7Hz.avi,willow4_zero_1.7Hz.wav,willow,1,5.18258470000001,0,21,18,75,55,92,3,1,3,5.52281683666667,NaN,6271.9046473,2,NaN,NaN,NaN
21,10,6,SyncDelta,3,1156_1.7Hz.avi,guitar31_zero_1.7Hz.wav,guitar,3,5.89881919999971,1,21,67,77,3,84,3,12,5,5.52281683666667,NaN,6278.78801,2,NaN,NaN,NaN
21,11,6,SyncDelta,99,1173_1.7Hz.avi,ep6_zero_1.7Hz.wav,ep,1,2.75227670000004,1,21,99,65,6,87,1,14,5,5.52281683666667,NaN,6286.5213789,2,NaN,NaN,NaN
21,12,6,SyncDelta,18,1101_1.7Hz.avi,willow13_zero_1.7Hz.wav,willow,1,5.41946420000022,0,21,75,18,92,55,2,13,2,5.52281683666667,NaN,6292.5547455,2,NaN,NaN,NaN
21,13,6,SyncDelta,95,1359_1.7Hz.avi,synth33_zero_1.7Hz.wav,synth,1,8.44572609999977,0,21,70,8,89,95,4,15,2,5.52281683666667,NaN,6299.4214404,2,NaN,NaN,NaN
21,14,6,SyncDelta,87,1142_1.7Hz.avi,ep3_zero_1.7Hz.wav,ep,3,5.25505520000024,1,21,65,6,87,99,3,7,3,5.52281683666667,NaN,6311.1215438,2,NaN,NaN,NaN
21,15,6,SyncDelta,75,1040_1.7Hz.avi,willow17_zero_1.7Hz.wav,willow,4,6.3451756000004,1,21,55,18,92,75,4,10,4,5.52281683666667,NaN,6318.9715369,2,NaN,NaN,NaN
21,16,6,SyncDelta,6,1007_1.7Hz.avi,ep8_zero_1.7Hz.wav,ep,4,4.29227319999973,1,21,99,65,87,6,4,11,4,5.52281683666667,NaN,6328.6882519,2,NaN,NaN,NaN
21,1,7,NoFlicker,170,1062_half_amp.avi,guitar3_half_amp.wav,guitar,4,10.6790053000004,1,21,164,112,183,170,4,2,5,5.58700390166667,NaN,6518.1391201,2,NaN,NaN,NaN
21,2,7,NoFlicker,117,1144_half_amp.avi,ep39_half_amp.wav,ep,1,7.9253334999994,0,21,180,150,173,117,4,9,4,5.58700390166667,NaN,6531.0558698,2,NaN,NaN,NaN
21,3,7,NoFlicker,183,1374_half_amp.avi,guitar16_half_amp.wav,guitar,2,8.65888989999985,0,21,170,164,112,183,4,5,1,5.58700390166667,NaN,6540.9225538,2,NaN,NaN,NaN
21,4,7,NoFlicker,112,1388_half_amp.avi,guitar39_half_amp.wav,guitar,1,5.42433660000006,0,21,170,183,112,164,3,8,4,5.58700390166667,NaN,6552.0392733,2,NaN,NaN,NaN
21,5,7,NoFlicker,171,1280_half_amp.avi,willow19_half_amp.wav,willow,3,5.68064120000054,1,21,118,156,171,152,3,7,1,5.58700390166667,NaN,6559.9060082,2,NaN,NaN,NaN
21,6,7,NoFlicker,111,1390_half_amp.avi,synth3_half_amp.wav,synth,2,3.60871410000073,1,21,184,111,131,140,2,1,5,5.58700390166667,NaN,6568.3393497,2,NaN,NaN,NaN
21,7,7,NoFlicker,131,1366_half_amp.avi,synth34_half_amp.wav,synth,3,10.7475037000004,0,21,111,184,140,131,4,14,2,5.58700390166667,NaN,6575.3227222,2,NaN,NaN,NaN
21,8,7,NoFlicker,184,1052_half_amp.avi,synth40_half_amp.wav,synth,1,9.61674050000056,1,21,184,111,131,140,1,3,1,5.58700390166667,NaN,6588.8228198,2,NaN,NaN,NaN
21,9,7,NoFlicker,118,1020_half_amp.avi,willow22_half_amp.wav,willow,2,5.65652179999961,0,21,152,156,118,171,3,6,2,5.58700390166667,NaN,6600.0228281,2,NaN,NaN,NaN
21,10,7,NoFlicker,164,1087_half_amp.avi,guitar17_half_amp.wav,guitar,2,3.43836649999957,1,21,170,164,183,112,2,11,5,5.58700390166667,NaN,6608.5895307,2,NaN,NaN,NaN
21,11,7,NoFlicker,180,1006_half_amp.avi,ep4_half_amp.wav,ep,4,13.2749248999999,0,21,180,173,117,150,1,13,4,5.58700390166667,NaN,6614.9562613,2,NaN,NaN,NaN
21,12,7,NoFlicker,156,1060_half_amp.avi,willow7_half_amp.wav,willow,2,5.83718589999989,0,21,171,152,118,156,4,16,5,5.58700390166667,NaN,6631.2229649,2,NaN,NaN,NaN
21,13,7,NoFlicker,140,1270_half_amp.avi,synth17_half_amp.wav,synth,3,5.43648679999933,1,21,111,131,140,184,3,10,4,5.58700390166667,NaN,6639.7063396,2,NaN,NaN,NaN
21,14,7,NoFlicker,173,1348_half_amp.avi,ep31_half_amp.wav,ep,1,4.93484929999977,1,21,173,180,150,117,1,4,4,5.58700390166667,NaN,6648.1230462,2,NaN,NaN,NaN
21,15,7,NoFlicker,152,1445_half_amp.avi,willow2_half_amp.wav,willow,2,7.26514330000009,0,21,152,171,118,156,1,15,1,5.58700390166667,NaN,6655.7231092,2,NaN,NaN,NaN
21,16,7,NoFlicker,150,1394_half_amp.avi,ep11_half_amp.wav,ep,1,3.72337030000017,0,21,117,150,180,173,2,12,1,5.58700390166667,NaN,6664.5731502,2,NaN,NaN,NaN
21,1,8,SyncTheta,52,1387_4Hz.avi,choir2_zero_4Hz.wav,choir,3,5.37469680000049,0,21,52,11,12,72,1,2,2,4.947636645,NaN,6846.6739564,2,NaN,NaN,NaN
21,2,8,SyncTheta,23,1330_4Hz.avi,acoustic47_zero_4Hz.wav,acoustic,1,7.62663529999918,1,21,23,60,4,5,1,5,3,4.947636645,NaN,6853.8739873,2,NaN,NaN,NaN
21,3,8,SyncTheta,11,1448_4Hz.avi,choir36_zero_4Hz.wav,choir,4,4.61761520000073,0,21,12,11,72,52,2,6,4,4.947636645,NaN,6863.1073958,2,NaN,NaN,NaN
21,4,8,SyncTheta,12,1077_4Hz.avi,choir18_zero_4Hz.wav,choir,3,6.43805960000009,0,21,52,72,11,12,4,7,4,4.947636645,NaN,6870.557427,2,NaN,NaN,NaN
21,5,8,SyncTheta,28,1148_4Hz.avi,orch19_zero_4Hz.wav,orch,3,5.12440080000033,1,21,57,102,28,30,3,11,2,4.947636645,NaN,6879.9908011,2,NaN,NaN,NaN
21,6,8,SyncTheta,14,1416_4Hz.avi,dar1_zero_4Hz.wav,dar,3,3.61797680000018,0,21,43,14,29,80,2,1,1,4.947636645,NaN,6888.0408206,2,NaN,NaN,NaN
21,7,8,SyncTheta,80,1082_4Hz.avi,dar15_zero_4Hz.wav,dar,4,6.70512320000034,0,21,14,80,43,29,2,13,1,4.947636645,NaN,6894.024246,2,NaN,NaN,NaN
21,8,8,SyncTheta,43,1141_4Hz.avi,dar13_zero_4Hz.wav,dar,1,6.63237750000008,1,21,43,14,80,29,1,3,2,4.947636645,NaN,6903.174221,2,NaN,NaN,NaN
21,9,8,SyncTheta,30,1016_4Hz.avi,orch14_zero_4Hz.wav,orch,3,6.62451280000005,1,21,28,57,30,102,3,10,1,4.947636645,NaN,6912.2909337,2,NaN,NaN,NaN
21,10,8,SyncTheta,72,1097_4Hz.avi,choir29_zero_4Hz.wav,choir,2,4.82425559999956,1,21,12,72,52,11,2,8,5,4.947636645,NaN,6920.4076314,2,NaN,NaN,NaN
21,11,8,SyncTheta,5,1381_4Hz.avi,acoustic1_zero_4Hz.wav,acoustic,1,4.95325820000016,0,21,23,5,4,60,2,15,1,4.947636645,NaN,6928.457695,2,NaN,NaN,NaN
21,12,8,SyncTheta,102,1012_4Hz.avi,orch18_zero_4Hz.wav,orch,4,4.44933519999995,1,21,28,30,57,102,4,16,4,4.947636645,NaN,6936.207702,2,NaN,NaN,NaN
21,13,8,SyncTheta,29,1158_4Hz.avi,dar23_zero_4Hz.wav,dar,3,4.74315810000007,0,21,29,80,14,43,1,9,3,4.947636645,NaN,6942.7244235,2,NaN,NaN,NaN
21,14,8,SyncTheta,60,1249_4Hz.avi,acoustic20_zero_4Hz.wav,acoustic,1,3.86991540000054,1,21,60,23,4,5,1,4,1,4.947636645,NaN,6950.3077599,2,NaN,NaN,NaN
21,15,8,SyncTheta,57,1309_4Hz.avi,orch7_zero_4Hz.wav,orch,2,3.38253959999929,0,21,30,28,57,102,3,14,4,4.947636645,NaN,6956.9744914,2,NaN,NaN,NaN
21,16,8,SyncTheta,4,1167_4Hz.avi,acoustic37_zero_4Hz.wav,acoustic,3,3.44604940000045,1,21,60,23,4,5,3,12,4,4.947636645,NaN,6961.8245196,2,NaN,NaN,NaN
21,1,9,NoFlicker,179,1186_half_amp.avi,guitar30_half_amp.wav,guitar,4,4.59545299999991,1,21,161,146,185,179,4,4,5,5.44037323833333,21.5894086483333,7453.226224,3,NaN,NaN,NaN
21,2,9,NoFlicker,189,1051_half_amp.avi,ep14_half_amp.wav,ep,2,11.6391174999999,1,21,144,189,177,132,2,7,3,5.44037323833333,21.5894086483333,7460.42634,3,NaN,NaN,NaN
21,3,9,NoFlicker,161,1433_half_amp.avi,guitar2_half_amp.wav,guitar,2,6.9498866999993,0,21,161,185,179,146,1,6,2,5.44037323833333,21.5894086483333,7473.4929785,3,NaN,NaN,NaN
21,4,9,NoFlicker,146,1005_half_amp.avi,guitar14_half_amp.wav,guitar,3,5.77205200000026,0,21,179,185,161,146,4,9,1,5.44037323833333,21.5894086483333,7482.2763519,3,NaN,NaN,NaN
21,5,9,NoFlicker,178,1057_half_amp.avi,willow9_half_amp.wav,willow,3,4.68302760000006,1,21,149,167,178,120,3,2,3,5.44037323833333,21.5894086483333,7490.5097141,3,NaN,NaN,NaN
21,6,9,NoFlicker,163,1441_half_amp.avi,synth27_half_amp.wav,synth,3,8.79717079999955,0,21,129,127,186,163,4,8,1,5.44037323833333,21.5894086483333,7498.3097582,3,NaN,NaN,NaN
21,7,9,NoFlicker,186,1031_half_amp.avi,synth7_half_amp.wav,synth,1,3.52972180000052,0,21,127,163,129,186,4,16,2,5.44037323833333,21.5894086483333,7509.8431315,3,NaN,NaN,NaN
21,8,9,NoFlicker,129,1286_half_amp.avi,synth30_half_amp.wav,synth,3,6.69669290000002,0,21,127,129,163,186,2,14,4,5.44037323833333,21.5894086483333,7515.776496,3,NaN,NaN,NaN
21,9,9,NoFlicker,120,1365_half_amp.avi,willow21_half_amp.wav,willow,3,6.74012499999935,0,21,120,178,149,167,1,1,4,5.44037323833333,21.5894086483333,7524.5265631,3,NaN,NaN,NaN
21,10,9,NoFlicker,185,1131_half_amp.avi,guitar45_half_amp.wav,guitar,2,8.00249729999996,0,21,161,146,185,179,3,10,3,5.44037323833333,21.5894086483333,7533.1932717,3,NaN,NaN,NaN
21,11,9,NoFlicker,177,1283_half_amp.avi,ep38_half_amp.wav,ep,2,5.78830379999999,1,21,144,177,189,132,2,12,4,5.44037323833333,21.5894086483333,7543.5266556,3,NaN,NaN,NaN
21,12,9,NoFlicker,149,1200_half_amp.avi,willow8_half_amp.wav,willow,2,6.5899500000005,0,21,149,167,120,178,1,13,3,5.44037323833333,21.5894086483333,7551.0766562,3,NaN,NaN,NaN
21,13,9,NoFlicker,127,1411_half_amp.avi,synth28_half_amp.wav,synth,4,3.20649550000053,0,21,186,127,129,163,2,15,2,5.44037323833333,21.5894086483333,7560.3266955,3,NaN,NaN,NaN
21,14,9,NoFlicker,132,1356_half_amp.avi,ep30_half_amp.wav,ep,2,3.90059609999935,1,21,177,132,189,144,2,5,5,5.44037323833333,21.5894086483333,7565.7934037,3,NaN,NaN,NaN
21,15,9,NoFlicker,167,1177_half_amp.avi,willow24_half_amp.wav,willow,4,6.07958719999988,0,21,149,167,178,120,2,3,1,5.44037323833333,21.5894086483333,7572.3934535,3,NaN,NaN,NaN
21,16,9,NoFlicker,144,1255_half_amp.avi,ep28_half_amp.wav,ep,1,5.47440950000055,1,21,144,189,132,177,1,11,1,5.44037323833333,21.5894086483333,7581.2767944,3,NaN,NaN,NaN
21,1,10,SyncTheta,63,1128_4Hz.avi,choir26_zero_4Hz.wav,choir,4,5.08592630000021,0,21,13,19,63,69,3,6,1,4.781577835,21.5894086483333,7752.1775753,3,NaN,NaN,NaN
21,2,10,SyncTheta,9,1054_4Hz.avi,acoustic44_zero_4Hz.wav,acoustic,4,7.33870750000006,0,21,20,44,9,58,3,3,3,4.781577835,21.5894086483333,7758.8942743,3,NaN,NaN,NaN
21,3,10,SyncTheta,13,1201_4Hz.avi,choir7_zero_4Hz.wav,choir,3,5.76360870000008,1,21,69,19,13,63,3,14,1,4.781577835,21.5894086483333,7768.7276789,3,NaN,NaN,NaN
21,4,10,SyncTheta,69,1216_4Hz.avi,choir32_zero_4Hz.wav,choir,1,5.67595720000008,0,21,63,69,19,13,2,15,3,4.781577835,21.5894086483333,7776.9610216,3,NaN,NaN,NaN
21,5,10,SyncTheta,91,1340_4Hz.avi,orch46_zero_4Hz.wav,orch,3,7.88859140000022,0,21,81,91,36,33,2,5,1,4.781577835,21.5894086483333,7784.944418,3,NaN,NaN,NaN
21,6,10,SyncTheta,31,1404_4Hz.avi,dar8_zero_4Hz.wav,dar,1,5.07204770000044,1,21,31,34,49,64,1,4,3,4.781577835,21.5894086483333,7795.611107,3,NaN,NaN,NaN
21,7,10,SyncTheta,64,1098_4Hz.avi,dar11_zero_4Hz.wav,dar,3,4.61530939999921,0,21,34,64,49,31,2,13,1,4.781577835,21.5894086483333,7803.0278426,3,NaN,NaN,NaN
21,8,10,SyncTheta,49,1221_4Hz.avi,dar21_zero_4Hz.wav,dar,4,4.95109630000024,0,21,34,49,31,64,2,8,2,4.781577835,21.5894086483333,7809.5278331,3,NaN,NaN,NaN
21,9,10,SyncTheta,81,1444_4Hz.avi,orch4_zero_4Hz.wav,orch,3,6.55723339999986,1,21,33,36,81,91,3,2,3,4.781577835,21.5894086483333,7817.2278669,3,NaN,NaN,NaN
21,10,10,SyncTheta,19,1247_4Hz.avi,choir38_zero_4Hz.wav,choir,3,5.66956149999987,1,21,69,13,19,63,3,16,2,4.781577835,21.5894086483333,7826.2946165,3,NaN,NaN,NaN
21,11,10,SyncTheta,20,1236_4Hz.avi,acoustic25_zero_4Hz.wav,acoustic,4,5.78394669999943,1,21,9,44,58,20,4,12,5,4.781577835,21.5894086483333,7835.194626,3,NaN,NaN,NaN
21,12,10,SyncTheta,36,1284_4Hz.avi,orch29_zero_4Hz.wav,orch,2,5.57580820000021,0,21,91,33,81,36,4,10,1,4.781577835,21.5894086483333,7843.7279908,3,NaN,NaN,NaN
21,13,10,SyncTheta,34,1319_4Hz.avi,dar22_zero_4Hz.wav,dar,1,4.53376609999941,1,21,34,64,31,49,1,11,3,4.781577835,21.5894086483333,7851.611361,3,NaN,NaN,NaN
21,14,10,SyncTheta,58,1323_4Hz.avi,acoustic29_zero_4Hz.wav,acoustic,3,4.03052230000048,0,21,20,58,9,44,2,1,3,4.781577835,21.5894086483333,7858.8780749,3,NaN,NaN,NaN
21,15,10,SyncTheta,33,1136_4Hz.avi,orch38_zero_4Hz.wav,orch,2,3.60264329999973,0,21,33,91,36,81,1,9,3,4.781577835,21.5894086483333,7864.5780807,3,NaN,NaN,NaN
21,16,10,SyncTheta,44,1254_4Hz.avi,acoustic48_zero_4Hz.wav,acoustic,2,3.66578329999993,1,21,20,44,58,9,2,7,4,4.781577835,21.5894086483333,7870.0947767,3,NaN,NaN,NaN
21,1,11,SyncDelta,90,1273_1.7Hz.avi,guitar23_zero_1.7Hz.wav,guitar,1,10.1673711000003,1,21,90,59,15,46,1,4,3,5.296348935,21.5894086483333,8065.2956625,3,NaN,NaN,NaN
21,2,11,SyncDelta,41,1132_1.7Hz.avi,ep10_zero_1.7Hz.wav,ep,3,7.8654047,0,21,41,101,24,25,1,8,3,5.296348935,21.5894086483333,8078.4790895,3,NaN,NaN,NaN
21,3,11,SyncDelta,59,1346_1.7Hz.avi,guitar33_zero_1.7Hz.wav,guitar,4,6.1931839000008,0,21,90,59,46,15,2,7,3,5.296348935,21.5894086483333,8088.6457998,3,NaN,NaN,NaN
21,4,11,SyncDelta,15,1422_1.7Hz.avi,guitar37_zero_1.7Hz.wav,guitar,2,7.19837040000039,1,21,90,15,46,59,2,9,4,5.296348935,21.5894086483333,8097.9791725,3,NaN,NaN,NaN
21,5,11,SyncDelta,48,1021_1.7Hz.avi,willow12_zero_1.7Hz.wav,willow,3,5.52342190000036,0,21,27,32,94,48,4,5,2,5.296348935,21.5894086483333,8107.3458559,3,NaN,NaN,NaN
21,6,11,SyncDelta,51,1331_1.7Hz.avi,synth47_zero_1.7Hz.wav,synth,3,3.56984899999952,1,21,61,100,51,50,3,3,1,5.296348935,21.5894086483333,8116.1292369,3,NaN,NaN,NaN
21,7,11,SyncDelta,50,1049_1.7Hz.avi,synth43_zero_1.7Hz.wav,synth,4,3.89848340000026,1,21,100,61,51,50,4,14,2,5.296348935,21.5894086483333,8122.2125851,3,NaN,NaN,NaN
21,8,11,SyncDelta,100,1107_1.7Hz.avi,synth23_zero_1.7Hz.wav,synth,4,4.16469750000033,1,21,51,50,61,100,4,11,1,5.296348935,21.5894086483333,8128.4292841,3,NaN,NaN,NaN
21,9,11,SyncDelta,27,1202_1.7Hz.avi,willow16_zero_1.7Hz.wav,willow,3,5.86574259999998,1,21,32,48,27,94,3,2,2,5.296348935,21.5894086483333,8135.6293168,3,NaN,NaN,NaN
21,10,11,SyncDelta,46,1210_1.7Hz.avi,guitar48_zero_1.7Hz.wav,guitar,4,5.50093319999996,0,21,46,90,15,59,1,10,3,5.296348935,21.5894086483333,8144.4626993,3,NaN,NaN,NaN
21,11,11,SyncDelta,101,1295_1.7Hz.avi,ep40_zero_1.7Hz.wav,ep,2,5.41276160000052,1,21,25,101,24,41,2,15,4,5.296348935,21.5894086483333,8151.5627631,3,NaN,NaN,NaN
21,12,11,SyncDelta,94,1109_1.7Hz.avi,willow6_zero_1.7Hz.wav,willow,1,4.76264759999958,0,21,32,27,48,94,4,16,4,5.296348935,21.5894086483333,8159.3127602,3,NaN,NaN,NaN
21,13,11,SyncDelta,61,1207_1.7Hz.avi,synth46_zero_1.7Hz.wav,synth,4,4.48100840000006,1,21,100,51,50,61,4,13,1,5.296348935,21.5894086483333,8166.3961234,3,NaN,NaN,NaN
21,14,11,SyncDelta,25,1094_1.7Hz.avi,ep15_zero_1.7Hz.wav,ep,2,4.33731919999991,0,21,24,41,101,25,4,1,4,5.296348935,21.5894086483333,8173.312862,3,NaN,NaN,NaN
21,15,11,SyncDelta,32,1360_1.7Hz.avi,willow10_zero_1.7Hz.wav,willow,4,5.09685029999946,0,21,27,48,32,94,3,6,2,5.296348935,21.5894086483333,8179.2628549,3,NaN,NaN,NaN
21,16,11,SyncDelta,24,1217_1.7Hz.avi,ep44_zero_1.7Hz.wav,ep,4,5.99797280000075,0,21,101,41,24,25,3,12,5,5.296348935,21.5894086483333,8185.6962078,3,NaN,NaN,NaN
21,1,12,AsyncTheta,159,1091_4Hz.avi,choir8_oneeighty_4Hz.wav,choir,4,3.28879849999976,1,21,139,97,98,159,4,3,1,5.733308655,21.5894086483333,8394.94712,3,NaN,NaN,NaN
21,2,12,AsyncTheta,133,1341_4Hz.avi,acoustic14_oneeighty_4Hz.wav,acoustic,4,6.10150010000143,0,21,105,148,133,104,3,11,1,5.733308655,21.5894086483333,8400.3638404,3,NaN,NaN,NaN
21,3,12,AsyncTheta,98,1014_4Hz.avi,choir41_oneeighty_4Hz.wav,choir,3,4.03413940000064,1,21,159,97,98,139,3,4,3,5.733308655,21.5894086483333,8409.7305191,3,NaN,NaN,NaN
21,4,12,AsyncTheta,97,1368_4Hz.avi,choir30_oneeighty_4Hz.wav,choir,4,6.06324399999903,0,21,98,97,159,139,2,6,4,5.733308655,21.5894086483333,8417.1138921,3,NaN,NaN,NaN
21,5,12,AsyncTheta,158,1206_4Hz.avi,orch6_oneeighty_4Hz.wav,orch,4,10.9334721000014,1,21,165,141,142,158,4,9,3,5.733308655,21.5894086483333,8426.2805901,3,NaN,NaN,NaN
21,6,12,AsyncTheta,122,1289_4Hz.avi,dar3_oneeighty_4Hz.wav,dar,3,9.3709942000005,0,21,147,122,116,154,2,2,2,5.733308655,21.5894086483333,8438.7140234,3,NaN,NaN,NaN
21,7,12,AsyncTheta,147,1304_4Hz.avi,dar10_oneeighty_4Hz.wav,dar,3,7.28574040000058,1,21,122,154,147,116,3,10,5,5.733308655,21.5894086483333,8449.6807029,3,NaN,NaN,NaN
21,8,12,AsyncTheta,116,1420_4Hz.avi,dar18_oneeighty_4Hz.wav,dar,2,4.52450930000123,1,21,122,116,147,154,2,5,3,5.733308655,21.5894086483333,8459.1807586,3,NaN,NaN,NaN
21,9,12,AsyncTheta,165,1410_4Hz.avi,orch43_oneeighty_4Hz.wav,orch,2,6.2641464999997,1,21,158,165,142,141,2,8,1,5.733308655,21.5894086483333,8466.0141358,3,NaN,NaN,NaN
21,10,12,AsyncTheta,139,1192_4Hz.avi,choir5_oneeighty_4Hz.wav,choir,3,10.4897825000007,0,21,139,98,159,97,1,12,1,5.733308655,21.5894086483333,8474.2308275,3,NaN,NaN,NaN
21,11,12,AsyncTheta,105,1003_4Hz.avi,acoustic6_oneeighty_4Hz.wav,acoustic,1,4.43054010000014,1,21,105,133,104,148,1,15,3,5.733308655,21.5894086483333,8487.8808689,3,NaN,NaN,NaN
21,12,12,AsyncTheta,141,1401_4Hz.avi,orch12_oneeighty_4Hz.wav,orch,4,4.06049080000048,0,21,158,142,141,165,3,16,3,5.733308655,21.5894086483333,8494.9809482,3,NaN,NaN,NaN
21,13,12,AsyncTheta,154,1074_4Hz.avi,dar5_oneeighty_4Hz.wav,dar,2,5.48185609999928,1,21,147,154,122,116,2,7,4,5.733308655,21.5894086483333,8501.4642951,3,NaN,NaN,NaN
21,14,12,AsyncTheta,104,1111_4Hz.avi,acoustic31_oneeighty_4Hz.wav,acoustic,1,4.90898589999961,1,21,104,133,105,148,1,1,2,5.733308655,21.5894086483333,8509.5309741,3,NaN,NaN,NaN
21,15,12,AsyncTheta,142,1155_4Hz.avi,orch9_oneeighty_4Hz.wav,orch,4,9.70881929999996,0,21,158,165,142,141,3,13,2,5.733308655,21.5894086483333,8517.4477114,3,NaN,NaN,NaN
21,16,12,AsyncTheta,148,1121_4Hz.avi,acoustic26_oneeighty_4Hz.wav,acoustic,4,5.34439989999919,0,21,133,148,105,104,2,14,3,5.733308655,21.5894086483333,8530.4977624,3,NaN,NaN,NaN
