ParticipantID,TrialNumber,BlockNumber,Condition,ClipID,VideoFile,SoundFile,SoundCategory,Response,RT,Accuracy,ConditionID,Frame1,Frame2,Frame3,Frame4,CorrectKey,EncodingPosition,Rating,BlockDuration,ExperimentDuration,MemoryTestOnset,RunNumber,Age,Handedness,Sex
22,1,1,SyncTheta,185,1131_4Hz.avi,guitar45_zero_4Hz.wav,guitar,2,7.71991679999974,0,22,185,168,170,179,1,4,3,6.02633656166667,NaN,7775.1242961,1,NaN,NaN,NaN
22,2,1,SyncTheta,166,1227_4Hz.avi,ep5_zero_4Hz.wav,ep,1,6.42200940000021,0,22,189,177,166,173,3,10,5,6.02633656166667,NaN,7784.8743204,1,NaN,NaN,NaN
22,3,1,SyncTheta,153,1157_4Hz.avi,willow1_zero_4Hz.wav,willow,3,5.46514220000063,1,22,156,167,153,178,3,8,5,6.02633656166667,NaN,7794.4410959,1,NaN,NaN,NaN
22,4,1,SyncTheta,156,1060_4Hz.avi,willow7_zero_4Hz.wav,willow,1,4.46683120000034,1,22,156,153,167,178,1,15,5,6.02633656166667,NaN,7801.5244599,1,NaN,NaN,NaN
22,5,1,SyncTheta,186,1031_4Hz.avi,synth7_zero_4Hz.wav,synth,2,4.39290460000029,0,22,163,135,140,186,4,9,3,6.02633656166667,NaN,7809.1744466,1,NaN,NaN,NaN
22,6,1,SyncTheta,170,1062_4Hz.avi,guitar3_zero_4Hz.wav,guitar,2,7.07031000000006,1,22,179,170,185,168,2,14,4,6.02633656166667,NaN,7815.8911783,1,NaN,NaN,NaN
22,7,1,SyncTheta,189,1051_4Hz.avi,ep14_zero_4Hz.wav,ep,3,8.20097969999915,0,22,189,173,177,166,1,11,3,6.02633656166667,NaN,7824.9579153,1,NaN,NaN,NaN
22,8,1,SyncTheta,173,1348_4Hz.avi,ep31_zero_4Hz.wav,ep,4,5.42449239999951,1,22,166,189,177,173,4,2,4,6.02633656166667,NaN,7834.6912454,1,NaN,NaN,NaN
22,9,1,SyncTheta,167,1177_4Hz.avi,willow24_zero_4Hz.wav,willow,3,7.66858430000048,0,22,153,156,178,167,4,1,2,6.02633656166667,NaN,7841.8746143,1,NaN,NaN,NaN
22,10,1,SyncTheta,140,1270_4Hz.avi,synth17_zero_4Hz.wav,synth,3,7.77235149999979,0,22,186,140,163,135,2,16,4,6.02633656166667,NaN,7851.2746642,1,NaN,NaN,NaN
22,11,1,SyncTheta,178,1057_4Hz.avi,willow9_zero_4Hz.wav,willow,4,7.35760970000047,1,22,167,156,153,178,4,6,2,6.02633656166667,NaN,7861.2247793,1,NaN,NaN,NaN
22,12,1,SyncTheta,179,1186_4Hz.avi,guitar30_zero_4Hz.wav,guitar,1,5.90834899999936,0,22,168,185,179,170,3,12,1,6.02633656166667,NaN,7870.0914338,1,NaN,NaN,NaN
22,13,1,SyncTheta,168,1204_4Hz.avi,guitar36_zero_4Hz.wav,guitar,4,6.04390030000013,0,22,179,185,168,170,3,7,3,6.02633656166667,NaN,7878.9581989,1,NaN,NaN,NaN
22,14,1,SyncTheta,163,1441_4Hz.avi,synth27_zero_4Hz.wav,synth,3,4.39955129999998,0,22,163,186,135,140,1,3,1,6.02633656166667,NaN,7887.4582387,1,NaN,NaN,NaN
22,15,1,SyncTheta,135,1154_4Hz.avi,synth38_zero_4Hz.wav,synth,2,5.94133950000014,0,22,163,140,135,186,3,5,5,6.02633656166667,NaN,7894.1082492,1,NaN,NaN,NaN
22,16,1,SyncTheta,177,1283_4Hz.avi,ep38_zero_4Hz.wav,ep,1,6.80269769999995,0,22,166,177,189,173,2,13,5,6.02633656166667,NaN,7903.0083229,1,NaN,NaN,NaN
22,1,2,SyncDelta,124,1183_1.7Hz.avi,choir24_zero_1.7Hz.wav,choir,4,7.47756050000044,0,22,124,78,88,181,1,6,2,5.569100435,NaN,8111.8760413,1,NaN,NaN,NaN
22,2,2,SyncDelta,96,1027_1.7Hz.avi,acoustic40_zero_1.7Hz.wav,acoustic,3,5.44330760000048,1,22,175,113,96,83,3,3,1,5.569100435,NaN,8121.9427895,1,NaN,NaN,NaN
22,3,2,SyncDelta,145,1352_1.7Hz.avi,orch39_zero_1.7Hz.wav,orch,2,7.08806470000036,1,22,188,145,134,137,2,7,3,5.569100435,NaN,8129.8928307,1,NaN,NaN,NaN
22,4,2,SyncDelta,137,1303_1.7Hz.avi,orch10_zero_1.7Hz.wav,orch,1,8.97619190000023,1,22,137,134,145,188,1,14,3,5.569100435,NaN,8140.326196,1,NaN,NaN,NaN
22,5,2,SyncDelta,136,1175_1.7Hz.avi,dar4_zero_1.7Hz.wav,dar,1,4.50469690000045,0,22,114,103,136,187,3,11,2,5.569100435,NaN,8152.4429531,1,NaN,NaN,NaN
22,6,2,SyncDelta,88,1191_1.7Hz.avi,choir20_zero_1.7Hz.wav,choir,3,10.2931246999997,0,22,78,181,124,88,4,15,3,5.569100435,NaN,8158.7596523,1,NaN,NaN,NaN
22,7,2,SyncDelta,175,1103_1.7Hz.avi,acoustic10_zero_1.7Hz.wav,acoustic,2,6.16512469999998,1,22,113,175,96,83,2,10,2,5.569100435,NaN,8170.6763507,1,NaN,NaN,NaN
22,8,2,SyncDelta,83,1139_1.7Hz.avi,acoustic27_zero_1.7Hz.wav,acoustic,2,3.4928205999995,0,22,83,96,175,113,1,2,4,5.569100435,NaN,8178.2430633,1,NaN,NaN,NaN
22,9,2,SyncDelta,134,1026_1.7Hz.avi,orch16_zero_1.7Hz.wav,orch,2,6.88504360000024,0,22,137,188,134,145,3,1,3,5.569100435,NaN,8184.0264522,1,NaN,NaN,NaN
22,10,2,SyncDelta,187,1164_1.7Hz.avi,dar12_zero_1.7Hz.wav,dar,3,3.79738800000086,1,22,114,103,187,136,3,12,2,5.569100435,NaN,8194.0265348,1,NaN,NaN,NaN
22,11,2,SyncDelta,188,1036_1.7Hz.avi,orch26_zero_1.7Hz.wav,orch,3,4.01637879999907,0,22,145,134,137,188,4,4,1,5.569100435,NaN,8200.2432322,1,NaN,NaN,NaN
22,12,2,SyncDelta,78,1301_1.7Hz.avi,choir11_zero_1.7Hz.wav,choir,4,8.54183329999978,1,22,124,88,181,78,4,13,3,5.569100435,NaN,8206.5932403,1,NaN,NaN,NaN
22,13,2,SyncDelta,181,1168_1.7Hz.avi,choir1_zero_1.7Hz.wav,choir,1,7.24521480000112,1,22,181,78,124,88,1,9,5,5.569100435,NaN,8216.8099608,1,NaN,NaN,NaN
22,14,2,SyncDelta,114,1322_1.7Hz.avi,dar14_zero_1.7Hz.wav,dar,1,4.80154249999941,0,22,187,103,136,114,4,5,2,5.569100435,NaN,8226.2766735,1,NaN,NaN,NaN
22,15,2,SyncDelta,103,1084_1.7Hz.avi,dar20_zero_1.7Hz.wav,dar,3,5.45854620000136,1,22,136,187,103,114,3,8,4,5.569100435,NaN,8232.9100207,1,NaN,NaN,NaN
22,16,2,SyncDelta,113,1037_1.7Hz.avi,acoustic23_zero_1.7Hz.wav,acoustic,3,4.2160399000004,1,22,175,83,113,96,3,16,5,5.569100435,NaN,8239.8934132,1,NaN,NaN,NaN
22,1,3,NoFlicker,15,1422_half_amp.avi,guitar37_half_amp.wav,guitar,3,8.22432470000058,1,22,73,3,15,84,3,4,1,5.06795246666667,NaN,8409.3442896,1,NaN,NaN,NaN
22,2,3,NoFlicker,86,1278_half_amp.avi,ep35_half_amp.wav,ep,2,5.81643349999831,0,22,24,99,6,86,4,3,4,5.06795246666667,NaN,8420.6943855,1,NaN,NaN,NaN
22,3,3,NoFlicker,18,1101_half_amp.avi,willow13_half_amp.wav,willow,2,11.6223924999995,0,22,18,27,66,92,1,12,3,5.06795246666667,NaN,8429.8610869,1,NaN,NaN,NaN
22,4,3,NoFlicker,66,1215_half_amp.avi,willow18_half_amp.wav,willow,2,7.54163789999984,0,22,27,92,18,66,4,13,1,5.06795246666667,NaN,8443.1278289,1,NaN,NaN,NaN
22,5,3,NoFlicker,8,1252_half_amp.avi,synth25_half_amp.wav,synth,3,5.92136800000117,0,22,95,50,71,8,4,9,4,5.06795246666667,NaN,8453.2778537,1,NaN,NaN,NaN
22,6,3,NoFlicker,3,1156_half_amp.avi,guitar31_half_amp.wav,guitar,1,4.91692890000013,1,22,3,15,73,84,1,16,4,5.06795246666667,NaN,8462.027943,1,NaN,NaN,NaN
22,7,3,NoFlicker,24,1217_half_amp.avi,ep44_half_amp.wav,ep,2,4.53853940000045,1,22,6,24,99,86,2,11,3,5.06795246666667,NaN,8468.7445987,1,NaN,NaN,NaN
22,8,3,NoFlicker,99,1173_half_amp.avi,ep6_half_amp.wav,ep,4,4.3333547000002,0,22,86,6,99,24,3,1,3,5.06795246666667,NaN,8475.1113335,1,NaN,NaN,NaN
22,9,3,NoFlicker,92,1030_half_amp.avi,willow23_half_amp.wav,willow,1,6.08770580000055,0,22,18,92,27,66,2,6,1,5.06795246666667,NaN,8482.8280671,1,NaN,NaN,NaN
22,10,3,NoFlicker,71,1076_half_amp.avi,synth21_half_amp.wav,synth,4,8.70462260000022,0,22,71,50,95,8,1,14,1,5.06795246666667,NaN,8490.4114125,1,NaN,NaN,NaN
22,11,3,NoFlicker,27,1202_half_amp.avi,willow16_half_amp.wav,willow,1,3.98060839999926,1,22,27,92,66,18,1,10,1,5.06795246666667,NaN,8501.1781052,1,NaN,NaN,NaN
22,12,3,NoFlicker,84,1294_half_amp.avi,guitar6_half_amp.wav,guitar,1,3.90492069999891,0,22,3,84,73,15,2,8,3,5.06795246666667,NaN,8508.5115048,1,NaN,NaN,NaN
22,13,3,NoFlicker,73,1369_half_amp.avi,guitar19_half_amp.wav,guitar,2,4.34452649999912,0,22,84,3,15,73,4,5,1,5.06795246666667,NaN,8515.4782075,1,NaN,NaN,NaN
22,14,3,NoFlicker,50,1049_half_amp.avi,synth43_half_amp.wav,synth,4,6.4460366000003,0,22,50,8,71,95,1,2,2,5.06795246666667,NaN,8522.544912,1,NaN,NaN,NaN
22,15,3,NoFlicker,95,1359_half_amp.avi,synth33_half_amp.wav,synth,4,7.95965160000014,0,22,8,95,50,71,2,7,2,5.06795246666667,NaN,8531.7616509,1,NaN,NaN,NaN
22,16,3,NoFlicker,6,1007_half_amp.avi,ep8_half_amp.wav,ep,4,5.18454180000117,0,22,86,6,24,99,2,15,2,5.06795246666667,NaN,8543.0783824,1,NaN,NaN,NaN
22,1,4,AsyncTheta,63,1128_4Hz.avi,choir26_oneeighty_4Hz.wav,choir,3,5.89002020000044,0,22,63,11,72,68,1,2,1,4.857276985,NaN,8704.3958424,1,NaN,NaN,NaN
22,2,4,AsyncTheta,44,1254_4Hz.avi,acoustic48_oneeighty_4Hz.wav,acoustic,4,5.77303009999923,1,22,4,47,60,44,4,5,3,4.857276985,NaN,8712.8626139,1,NaN,NaN,NaN
22,3,4,AsyncTheta,85,1383_4Hz.avi,orch23_oneeighty_4Hz.wav,orch,3,4.27992460000132,0,22,85,81,28,102,1,7,3,4.857276985,NaN,8721.4126241,1,NaN,NaN,NaN
22,4,4,AsyncTheta,102,1012_4Hz.avi,orch18_oneeighty_4Hz.wav,orch,1,6.09835600000042,0,22,85,81,28,102,4,16,4,4.857276985,NaN,8727.6626519,1,NaN,NaN,NaN
22,5,4,AsyncTheta,14,1416_4Hz.avi,dar1_oneeighty_4Hz.wav,dar,4,5.59607390000019,0,22,14,56,80,49,1,14,2,4.857276985,NaN,8735.5127037,1,NaN,NaN,NaN
22,6,4,AsyncTheta,11,1448_4Hz.avi,choir36_oneeighty_4Hz.wav,choir,3,5.66178639999998,0,22,68,11,63,72,2,13,3,4.857276985,NaN,8743.4794402,1,NaN,NaN,NaN
22,7,4,AsyncTheta,4,1167_4Hz.avi,acoustic37_oneeighty_4Hz.wav,acoustic,4,10.1259813999986,0,22,60,44,4,47,3,8,4,4.857276985,NaN,8751.3627823,1,NaN,NaN,NaN
22,8,4,AsyncTheta,47,1292_4Hz.avi,acoustic28_oneeighty_4Hz.wav,acoustic,1,4.17983190000086,0,22,44,47,4,60,2,3,1,4.857276985,NaN,8762.8961527,1,NaN,NaN,NaN
22,9,4,AsyncTheta,81,1444_4Hz.avi,orch4_oneeighty_4Hz.wav,orch,3,8.2954606000003,1,22,28,102,81,85,3,1,2,4.857276985,NaN,8768.5795426,1,NaN,NaN,NaN
22,10,4,AsyncTheta,80,1082_4Hz.avi,dar15_oneeighty_4Hz.wav,dar,3,12.2131355000001,0,22,49,80,14,56,2,15,2,4.857276985,NaN,8778.8296221,1,NaN,NaN,NaN
22,11,4,AsyncTheta,28,1148_4Hz.avi,orch19_oneeighty_4Hz.wav,orch,2,3.9154295999997,0,22,85,81,102,28,4,4,1,4.857276985,NaN,8793.8130076,1,NaN,NaN,NaN
22,12,4,AsyncTheta,68,1023_4Hz.avi,choir3_oneeighty_4Hz.wav,choir,4,7.07691930000146,0,22,68,63,11,72,1,11,1,4.857276985,NaN,8800.7630404,1,NaN,NaN,NaN
22,13,4,AsyncTheta,72,1097_4Hz.avi,choir29_oneeighty_4Hz.wav,choir,1,4.24215360000017,0,22,11,63,68,72,4,6,5,4.857276985,NaN,8811.1297646,1,NaN,NaN,NaN
22,14,4,AsyncTheta,56,1063_4Hz.avi,dar16_oneeighty_4Hz.wav,dar,1,7.40945470000042,1,22,56,80,14,49,1,9,1,4.857276985,NaN,8818.3631412,1,NaN,NaN,NaN
22,15,4,AsyncTheta,49,1221_4Hz.avi,dar21_oneeighty_4Hz.wav,dar,1,3.60832889999983,0,22,80,14,49,56,3,12,1,4.857276985,NaN,8828.8465511,1,NaN,NaN,NaN
22,16,4,AsyncTheta,60,1249_4Hz.avi,acoustic20_oneeighty_4Hz.wav,acoustic,2,4.32363880000048,0,22,4,47,44,60,4,10,1,4.857276985,NaN,8835.46322,1,NaN,NaN,NaN
22,1,5,SyncTheta,151,1259_4Hz.avi,guitar43_zero_4Hz.wav,guitar,3,6.83774850000009,0,22,161,172,183,151,4,3,1,4.99356613666667,NaN,9155.2480632,2,NaN,NaN,NaN
22,2,5,SyncTheta,176,1405_4Hz.avi,ep46_zero_4Hz.wav,ep,4,3.76268230000096,0,22,180,176,144,138,2,7,2,4.99356613666667,NaN,9163.748106,2,NaN,NaN,NaN
22,3,5,SyncTheta,171,1280_4Hz.avi,willow19_zero_4Hz.wav,willow,1,8.85960399999931,0,22,130,157,171,149,3,14,3,4.99356613666667,NaN,9169.9814547,2,NaN,NaN,NaN
22,4,5,SyncTheta,149,1200_4Hz.avi,willow8_zero_4Hz.wav,willow,4,3.33573280000019,1,22,157,171,130,149,4,16,3,4.99356613666667,NaN,9182.1315399,2,NaN,NaN,NaN
22,5,5,SyncTheta,184,1052_4Hz.avi,synth40_zero_4Hz.wav,synth,3,5.39816650000103,0,22,184,129,155,128,1,11,2,4.99356613666667,NaN,9187.8482632,2,NaN,NaN,NaN
22,6,5,SyncTheta,172,1350_4Hz.avi,guitar10_zero_4Hz.wav,guitar,1,4.61653880000085,1,22,172,161,183,151,1,9,2,4.99356613666667,NaN,9195.2649234,2,NaN,NaN,NaN
22,7,5,SyncTheta,180,1006_4Hz.avi,ep4_zero_4Hz.wav,ep,1,4.93952119999994,1,22,180,138,176,144,1,10,2,4.99356613666667,NaN,9201.798299,2,NaN,NaN,NaN
22,8,5,SyncTheta,138,1149_4Hz.avi,ep2_zero_4Hz.wav,ep,3,6.1573599000003,1,22,144,180,138,176,3,4,3,4.99356613666667,NaN,9208.3316726,2,NaN,NaN,NaN
22,9,5,SyncTheta,157,1225_4Hz.avi,willow14_zero_4Hz.wav,willow,3,4.2087692999994,0,22,149,130,171,157,4,1,3,4.99356613666667,NaN,9216.2483807,2,NaN,NaN,NaN
22,10,5,SyncTheta,128,1269_4Hz.avi,synth14_zero_4Hz.wav,synth,2,7.96355620000031,0,22,128,184,155,129,1,15,3,4.99356613666667,NaN,9222.0317632,2,NaN,NaN,NaN
22,11,5,SyncTheta,130,1081_4Hz.avi,willow5_zero_4Hz.wav,willow,1,5.4972772000001,0,22,171,130,157,149,2,13,2,4.99356613666667,NaN,9231.6984287,2,NaN,NaN,NaN
22,12,5,SyncTheta,161,1433_4Hz.avi,guitar2_zero_4Hz.wav,guitar,3,7.38351089999924,1,22,151,172,161,183,3,8,2,4.99356613666667,NaN,9239.8485087,2,NaN,NaN,NaN
22,13,5,SyncTheta,183,1374_4Hz.avi,guitar16_zero_4Hz.wav,guitar,3,7.20062379999945,0,22,183,172,161,151,1,6,3,4.99356613666667,NaN,9250.1652214,2,NaN,NaN,NaN
22,14,5,SyncTheta,129,1286_4Hz.avi,synth30_zero_4Hz.wav,synth,2,4.51928000000044,1,22,184,129,128,155,2,2,4,4.99356613666667,NaN,9260.2652442,2,NaN,NaN,NaN
22,15,5,SyncTheta,155,1042_4Hz.avi,synth10_zero_4Hz.wav,synth,1,5.37050400000044,0,22,128,184,129,155,4,5,4,4.99356613666667,NaN,9267.198637,2,NaN,NaN,NaN
22,16,5,SyncTheta,144,1255_4Hz.avi,ep28_zero_4Hz.wav,ep,1,5.06667809999999,1,22,144,138,176,180,1,12,3,4.99356613666667,NaN,9275.7820097,2,NaN,NaN,NaN
22,1,6,AsyncTheta,13,1201_4Hz.avi,choir7_oneeighty_4Hz.wav,choir,2,5.05802240000048,1,22,62,13,19,69,2,3,1,4.534214825,NaN,9433.8328463,2,NaN,NaN,NaN
22,2,6,AsyncTheta,39,1061_4Hz.avi,acoustic11_oneeighty_4Hz.wav,acoustic,1,4.26598209999975,0,22,58,39,9,20,2,5,2,4.534214825,NaN,9440.8995557,2,NaN,NaN,NaN
22,3,6,AsyncTheta,36,1284_4Hz.avi,orch29_oneeighty_4Hz.wav,orch,4,3.80182000000059,1,22,33,74,91,36,4,8,3,4.534214825,NaN,9447.5662295,2,NaN,NaN,NaN
22,4,6,AsyncTheta,33,1136_4Hz.avi,orch38_oneeighty_4Hz.wav,orch,2,4.20717610000065,1,22,36,33,74,91,2,10,2,4.534214825,NaN,9454.066261,2,NaN,NaN,NaN
22,5,6,AsyncTheta,34,1319_4Hz.avi,dar22_oneeighty_4Hz.wav,dar,1,8.22239459999946,1,22,34,45,64,31,1,14,2,4.534214825,NaN,9461.3329902,2,NaN,NaN,NaN
22,6,6,AsyncTheta,19,1247_4Hz.avi,choir38_oneeighty_4Hz.wav,choir,2,6.24287430000004,0,22,19,62,13,69,1,12,4,4.534214825,NaN,9471.4330521,2,NaN,NaN,NaN
22,7,6,AsyncTheta,58,1323_4Hz.avi,acoustic29_oneeighty_4Hz.wav,acoustic,4,4.07928999999967,0,22,58,20,39,9,1,6,5,4.534214825,NaN,9479.1163909,2,NaN,NaN,NaN
22,8,6,AsyncTheta,9,1054_4Hz.avi,acoustic44_oneeighty_4Hz.wav,acoustic,3,3.63282689999869,0,22,20,9,39,58,2,4,4,4.534214825,NaN,9485.2164795,2,NaN,NaN,NaN
22,9,6,AsyncTheta,74,1337_4Hz.avi,orch24_oneeighty_4Hz.wav,orch,3,8.0592259999994,1,22,33,91,74,36,3,1,3,4.534214825,NaN,9492.0331542,2,NaN,NaN,NaN
22,10,6,AsyncTheta,45,1203_4Hz.avi,dar2_oneeighty_4Hz.wav,dar,4,8.00575500000014,1,22,64,34,31,45,4,15,2,4.534214825,NaN,9503.0332394,2,NaN,NaN,NaN
22,11,6,AsyncTheta,91,1340_4Hz.avi,orch46_oneeighty_4Hz.wav,orch,4,4.7872239999997,0,22,74,91,36,33,2,7,3,4.534214825,NaN,9513.399905,2,NaN,NaN,NaN
22,12,6,AsyncTheta,62,1058_4Hz.avi,choir19_oneeighty_4Hz.wav,choir,1,6.01617839999926,1,22,62,19,13,69,1,11,1,4.534214825,NaN,9520.2333079,2,NaN,NaN,NaN
22,13,6,AsyncTheta,69,1216_4Hz.avi,choir32_oneeighty_4Hz.wav,choir,2,5.36034260000088,0,22,69,62,19,13,1,9,4,4.534214825,NaN,9527.9166761,2,NaN,NaN,NaN
22,14,6,AsyncTheta,64,1098_4Hz.avi,dar11_oneeighty_4Hz.wav,dar,4,4.20155929999964,0,22,64,45,34,31,1,2,2,4.534214825,NaN,9535.8834106,2,NaN,NaN,NaN
22,15,6,AsyncTheta,31,1404_4Hz.avi,dar8_oneeighty_4Hz.wav,dar,3,4.4454024000006,1,22,64,45,31,34,3,13,4,4.534214825,NaN,9542.7667768,2,NaN,NaN,NaN
22,16,6,AsyncTheta,20,1236_4Hz.avi,acoustic25_oneeighty_4Hz.wav,acoustic,4,4.4287562999998,0,22,20,9,39,58,1,16,2,4.534214825,NaN,9548.5668114,2,NaN,NaN,NaN
22,1,7,NoFlicker,7,1017_half_amp.avi,guitar47_half_amp.wav,guitar,3,4.04183709999961,1,22,59,77,7,53,3,1,3,5.26091933333333,NaN,9748.4511742,2,NaN,NaN,NaN
22,2,7,NoFlicker,41,1132_half_amp.avi,ep10_half_amp.wav,ep,3,4.94449260000147,0,22,16,26,87,41,4,8,3,5.26091933333333,NaN,9753.9345375,2,NaN,NaN,NaN
22,3,7,NoFlicker,48,1021_half_amp.avi,willow12_half_amp.wav,willow,4,5.28231469999992,0,22,22,48,75,37,2,14,3,5.26091933333333,NaN,9762.1512499,2,NaN,NaN,NaN
22,4,7,NoFlicker,22,1212_half_amp.avi,willow20_half_amp.wav,willow,1,5.57641800000056,0,22,48,37,75,22,4,16,2,5.26091933333333,NaN,9768.8512805,2,NaN,NaN,NaN
22,5,7,NoFlicker,89,1393_half_amp.avi,synth41_half_amp.wav,synth,4,5.85725479999928,1,22,35,61,54,89,4,4,2,5.26091933333333,NaN,9776.9180023,2,NaN,NaN,NaN
22,6,7,NoFlicker,77,1008_half_amp.avi,guitar42_half_amp.wav,guitar,3,4.29727009999988,1,22,59,53,77,7,3,12,3,5.26091933333333,NaN,9785.5513402,2,NaN,NaN,NaN
22,7,7,NoFlicker,26,1190_half_amp.avi,ep7_half_amp.wav,ep,4,7.25665760000084,1,22,87,41,16,26,4,10,4,5.26091933333333,NaN,9791.501373,2,NaN,NaN,NaN
22,8,7,NoFlicker,16,1442_half_amp.avi,ep34_half_amp.wav,ep,4,3.83361610000065,0,22,26,87,16,41,3,7,4,5.26091933333333,NaN,9801.7181313,2,NaN,NaN,NaN
22,9,7,NoFlicker,37,1237_half_amp.avi,willow15_half_amp.wav,willow,4,3.00752280000052,0,22,22,48,37,75,3,5,4,5.26091933333333,NaN,9807.4681749,2,NaN,NaN,NaN
22,10,7,NoFlicker,54,1181_half_amp.avi,synth12_half_amp.wav,synth,1,6.33614309999939,0,22,89,35,54,61,3,13,2,5.26091933333333,NaN,9812.1848689,2,NaN,NaN,NaN
22,11,7,NoFlicker,75,1040_half_amp.avi,willow17_half_amp.wav,willow,3,5.46862699999838,1,22,22,48,75,37,3,11,4,5.26091933333333,NaN,9821.6348632,2,NaN,NaN,NaN
22,12,7,NoFlicker,59,1346_half_amp.avi,guitar33_half_amp.wav,guitar,1,3.2963892000007,0,22,7,59,53,77,2,9,3,5.26091933333333,NaN,9830.1349063,2,NaN,NaN,NaN
22,13,7,NoFlicker,53,1197_half_amp.avi,guitar46_half_amp.wav,guitar,2,7.96243110000069,0,22,7,59,77,53,4,6,2,5.26091933333333,NaN,9835.20161,2,NaN,NaN,NaN
22,14,7,NoFlicker,35,1039_half_amp.avi,synth5_half_amp.wav,synth,2,5.58512499999961,0,22,89,61,54,35,4,2,2,5.26091933333333,NaN,9845.6349852,2,NaN,NaN,NaN
22,15,7,NoFlicker,61,1207_half_amp.avi,synth46_half_amp.wav,synth,3,9.26049819999935,0,22,54,61,35,89,2,3,1,5.26091933333333,NaN,9853.0684115,2,NaN,NaN,NaN
22,16,7,NoFlicker,87,1142_half_amp.avi,ep3_half_amp.wav,ep,1,4.78069169999981,1,22,87,26,41,16,1,15,1,5.26091933333333,NaN,9863.9684117,2,NaN,NaN,NaN
22,1,8,SyncDelta,97,1368_1.7Hz.avi,choir30_zero_1.7Hz.wav,choir,4,5.69536460000018,0,22,97,159,76,98,1,9,4,4.57709430333333,NaN,10020.2692827,2,NaN,NaN,NaN
22,2,8,SyncDelta,79,1071_1.7Hz.avi,acoustic17_zero_1.7Hz.wav,acoustic,2,3.551942099999,0,22,104,105,79,148,3,4,5,4.57709430333333,NaN,10028.935939,2,NaN,NaN,NaN
22,3,8,SyncDelta,142,1155_1.7Hz.avi,orch9_zero_1.7Hz.wav,orch,1,5.4859536999993,1,22,142,165,141,110,1,7,1,4.57709430333333,NaN,10034.5026629,2,NaN,NaN,NaN
22,4,8,SyncDelta,110,1443_1.7Hz.avi,orch3_zero_1.7Hz.wav,orch,4,3.37214440000025,1,22,141,142,165,110,4,16,5,4.57709430333333,NaN,10042.7526778,2,NaN,NaN,NaN
22,5,8,SyncDelta,82,1449_1.7Hz.avi,dar17_zero_1.7Hz.wav,dar,2,7.04636849999952,1,22,116,82,154,122,2,12,2,4.57709430333333,NaN,10047.7360367,2,NaN,NaN,NaN
22,6,8,SyncDelta,159,1091_1.7Hz.avi,choir8_zero_1.7Hz.wav,choir,2,6.51181150000048,0,22,98,76,159,97,3,15,3,4.57709430333333,NaN,10056.5860861,2,NaN,NaN,NaN
22,7,8,SyncDelta,104,1111_1.7Hz.avi,acoustic31_zero_1.7Hz.wav,acoustic,2,5.80146760000025,1,22,79,104,105,148,2,6,5,4.57709430333333,NaN,10065.3528218,2,NaN,NaN,NaN
22,8,8,SyncDelta,105,1003_1.7Hz.avi,acoustic6_zero_1.7Hz.wav,acoustic,2,8.0762451999999,0,22,104,79,105,148,3,3,4,4.57709430333333,NaN,10072.6695554,2,NaN,NaN,NaN
22,9,8,SyncDelta,141,1401_1.7Hz.avi,orch12_zero_1.7Hz.wav,orch,1,6.66114939999898,1,22,141,165,142,110,1,1,4,4.57709430333333,NaN,10082.9862238,2,NaN,NaN,NaN
22,10,8,SyncDelta,122,1289_1.7Hz.avi,dar3_zero_1.7Hz.wav,dar,2,5.53835380000055,0,22,82,154,116,122,4,13,3,4.57709430333333,NaN,10092.2363228,2,NaN,NaN,NaN
22,11,8,SyncDelta,165,1410_1.7Hz.avi,orch43_zero_1.7Hz.wav,orch,1,4.69272749999982,0,22,142,165,141,110,2,2,3,4.57709430333333,NaN,10101.1196758,2,NaN,NaN,NaN
22,12,8,SyncDelta,98,1014_1.7Hz.avi,choir41_zero_1.7Hz.wav,choir,4,6.20652669999981,1,22,76,159,97,98,4,14,3,4.57709430333333,NaN,10109.0197203,2,NaN,NaN,NaN
22,13,8,SyncDelta,76,1293_1.7Hz.avi,choir23_zero_1.7Hz.wav,choir,3,4.80586709999989,1,22,97,98,76,159,3,10,2,4.57709430333333,NaN,10117.6697716,2,NaN,NaN,NaN
22,14,8,SyncDelta,116,1420_1.7Hz.avi,dar18_zero_1.7Hz.wav,dar,4,4.39083580000079,1,22,82,122,154,116,4,5,4,4.57709430333333,NaN,10124.9698037,2,NaN,NaN,NaN
22,15,8,SyncDelta,154,1074_1.7Hz.avi,dar5_zero_1.7Hz.wav,dar,2,4.73716390000118,1,22,82,154,116,122,2,11,4,4.57709430333333,NaN,10132.4865373,2,NaN,NaN,NaN
22,16,8,SyncDelta,148,1121_1.7Hz.avi,acoustic26_zero_1.7Hz.wav,acoustic,2,4.1165146000003,0,22,148,105,104,79,1,8,3,4.57709430333333,NaN,10139.3532377,2,NaN,NaN,NaN
22,1,9,NoFlicker,67,1310_half_amp.avi,guitar21_half_amp.wav,guitar,3,6.36667300000045,0,22,67,93,46,90,1,2,3,5.60784691166667,20.4548104716667,10902.8559845,3,NaN,NaN,NaN
22,2,9,NoFlicker,106,1113_half_amp.avi,ep29_half_amp.wav,ep,4,5.84230240000034,1,22,25,65,101,106,4,4,4,5.60784691166667,20.4548104716667,10911.5560307,3,NaN,NaN,NaN
22,3,9,NoFlicker,32,1360_half_amp.avi,willow10_half_amp.wav,willow,2,6.20419410000068,1,22,108,32,94,55,2,11,1,5.60784691166667,20.4548104716667,10920.1560715,3,NaN,NaN,NaN
22,4,9,NoFlicker,94,1109_half_amp.avi,willow6_half_amp.wav,willow,1,4.65855249999913,0,22,108,55,32,94,4,16,2,5.60784691166667,20.4548104716667,10928.4227799,3,NaN,NaN,NaN
22,5,9,NoFlicker,100,1107_half_amp.avi,synth23_half_amp.wav,synth,2,6.3520838000004,1,22,70,100,109,51,2,8,3,5.60784691166667,20.4548104716667,10935.4228616,3,NaN,NaN,NaN
22,6,9,NoFlicker,93,1046_half_amp.avi,guitar18_half_amp.wav,guitar,2,9.00302129999909,0,22,67,46,90,93,4,15,1,5.60784691166667,20.4548104716667,10943.2062399,3,NaN,NaN,NaN
22,7,9,NoFlicker,65,1013_half_amp.avi,ep22_half_amp.wav,ep,4,4.75021269999888,0,22,25,65,101,106,2,9,4,5.60784691166667,20.4548104716667,10954.1229041,3,NaN,NaN,NaN
22,8,9,NoFlicker,101,1295_half_amp.avi,ep40_half_amp.wav,ep,1,3.92608670000118,0,22,106,65,25,101,4,1,4,5.60784691166667,20.4548104716667,10961.5063115,3,NaN,NaN,NaN
22,9,9,NoFlicker,55,1044_half_amp.avi,willow4_half_amp.wav,willow,3,10.0393069000002,1,22,32,108,55,94,3,7,2,5.60784691166667,20.4548104716667,10968.7563465,3,NaN,NaN,NaN
22,10,9,NoFlicker,51,1331_half_amp.avi,synth47_half_amp.wav,synth,2,8.36859379999987,0,22,51,100,109,70,1,14,1,5.60784691166667,20.4548104716667,10980.3397295,3,NaN,NaN,NaN
22,11,9,NoFlicker,108,1415_half_amp.avi,willow3_half_amp.wav,willow,4,6.11200869999993,0,22,94,32,108,55,3,10,3,5.60784691166667,20.4548104716667,10992.0231274,3,NaN,NaN,NaN
22,12,9,NoFlicker,46,1210_half_amp.avi,guitar48_half_amp.wav,guitar,1,5.83191269999952,1,22,46,90,93,67,1,13,4,5.60784691166667,20.4548104716667,11000.4898303,3,NaN,NaN,NaN
22,13,9,NoFlicker,90,1273_half_amp.avi,guitar23_half_amp.wav,guitar,4,8.92089560000022,0,22,46,90,93,67,2,6,2,5.60784691166667,20.4548104716667,11008.5231788,3,NaN,NaN,NaN
22,14,9,NoFlicker,109,1299_half_amp.avi,synth18_half_amp.wav,synth,3,11.9203441999998,0,22,109,100,51,70,1,3,2,5.60784691166667,20.4548104716667,11019.3066093,3,NaN,NaN,NaN
22,15,9,NoFlicker,70,1093_half_amp.avi,synth6_half_amp.wav,synth,2,3.74921189999986,0,22,109,100,70,51,3,5,3,5.60784691166667,20.4548104716667,11032.8400005,3,NaN,NaN,NaN
22,16,9,NoFlicker,25,1094_half_amp.avi,ep15_half_amp.wav,ep,4,8.43066499999986,0,22,25,101,65,106,1,12,3,5.60784691166667,20.4548104716667,11039.9400414,3,NaN,NaN,NaN
22,1,10,AsyncTheta,38,1184_4Hz.avi,choir33_oneeighty_4Hz.wav,choir,1,6.91162190000068,0,22,52,38,12,10,2,5,2,4.91852813833333,20.4548104716667,11206.4409036,3,NaN,NaN,NaN
22,2,10,AsyncTheta,23,1330_4Hz.avi,acoustic47_oneeighty_4Hz.wav,acoustic,2,8.56597860000147,1,22,1,23,5,21,2,11,3,4.91852813833333,20.4548104716667,11216.1409641,3,NaN,NaN,NaN
22,3,10,AsyncTheta,57,1309_4Hz.avi,orch7_oneeighty_4Hz.wav,orch,1,6.31691470000078,0,22,30,57,42,17,2,6,3,4.91852813833333,20.4548104716667,11227.1910483,3,NaN,NaN,NaN
22,4,10,AsyncTheta,17,1162_4Hz.avi,orch1_oneeighty_4Hz.wav,orch,4,4.04073360000075,1,22,57,42,30,17,4,16,3,4.91852813833333,20.4548104716667,11236.674379,3,NaN,NaN,NaN
22,5,10,AsyncTheta,40,1239_4Hz.avi,dar6_oneeighty_4Hz.wav,dar,4,3.40884080000069,1,22,2,43,29,40,4,8,4,4.91852813833333,20.4548104716667,11242.7244442,3,NaN,NaN,NaN
22,6,10,AsyncTheta,12,1077_4Hz.avi,choir18_oneeighty_4Hz.wav,choir,2,9.20670379999865,1,22,52,12,10,38,2,14,2,4.91852813833333,20.4548104716667,11248.1744684,3,NaN,NaN,NaN
22,7,10,AsyncTheta,21,1112_4Hz.avi,acoustic32_oneeighty_4Hz.wav,acoustic,1,9.03020079999988,0,22,1,21,5,23,2,12,1,4.91852813833333,20.4548104716667,11259.3578945,3,NaN,NaN,NaN
22,8,10,AsyncTheta,1,1064_4Hz.avi,acoustic12_oneeighty_4Hz.wav,acoustic,3,10.3516755000001,0,22,21,5,23,1,4,10,4,4.91852813833333,20.4548104716667,11270.3912204,3,NaN,NaN,NaN
22,9,10,AsyncTheta,42,1339_4Hz.avi,orch31_oneeighty_4Hz.wav,orch,3,6.04698899999858,1,22,17,57,42,30,3,2,3,4.91852813833333,20.4548104716667,11283.2579865,3,NaN,NaN,NaN
22,10,10,AsyncTheta,2,1431_4Hz.avi,dar24_oneeighty_4Hz.wav,dar,1,6.98018709999997,0,22,29,43,40,2,4,13,4,4.91852813833333,20.4548104716667,11291.3080352,3,NaN,NaN,NaN
22,11,10,AsyncTheta,30,1016_4Hz.avi,orch14_oneeighty_4Hz.wav,orch,3,5.93445760000031,0,22,30,42,57,17,1,4,2,4.91852813833333,20.4548104716667,11300.5914326,3,NaN,NaN,NaN
22,12,10,AsyncTheta,10,1179_4Hz.avi,choir4_oneeighty_4Hz.wav,choir,3,4.02491689999988,1,22,12,52,10,38,3,9,2,4.91852813833333,20.4548104716667,11309.1914259,3,NaN,NaN,NaN
22,13,10,AsyncTheta,52,1387_4Hz.avi,choir2_oneeighty_4Hz.wav,choir,3,3.84433290000015,0,22,38,12,10,52,4,7,1,4.91852813833333,20.4548104716667,11315.1581219,3,NaN,NaN,NaN
22,14,10,AsyncTheta,29,1158_4Hz.avi,dar23_oneeighty_4Hz.wav,dar,3,6.18060990000049,0,22,43,29,2,40,2,1,3,4.91852813833333,20.4548104716667,11321.6248516,3,NaN,NaN,NaN
22,15,10,AsyncTheta,43,1141_4Hz.avi,dar13_oneeighty_4Hz.wav,dar,3,5.45498430000043,1,22,29,40,43,2,3,3,3,4.91852813833333,20.4548104716667,11329.5915562,3,NaN,NaN,NaN
22,16,10,AsyncTheta,5,1381_4Hz.avi,acoustic1_oneeighty_4Hz.wav,acoustic,1,5.30470870000136,0,22,23,1,5,21,3,15,2,4.91852813833333,20.4548104716667,11338.2916037,3,NaN,NaN,NaN
22,1,11,SyncTheta,112,1388_4Hz.avi,guitar39_zero_4Hz.wav,guitar,2,5.55861100000038,0,22,164,146,112,115,3,1,3,4.66313058333333,20.4548104716667,11486.5923821,3,NaN,NaN,NaN
22,2,11,SyncTheta,150,1394_4Hz.avi,ep11_zero_4Hz.wav,ep,4,8.71063890000005,0,22,132,123,150,117,3,8,1,4.66313058333333,20.4548104716667,11493.7423942,3,NaN,NaN,NaN
22,3,11,SyncTheta,118,1020_4Hz.avi,willow22_zero_4Hz.wav,willow,2,5.75858840000001,0,22,120,119,118,152,3,11,1,4.66313058333333,20.4548104716667,11505.4924822,3,NaN,NaN,NaN
22,4,11,SyncTheta,120,1365_4Hz.avi,willow21_zero_4Hz.wav,willow,4,9.43364760000077,0,22,152,120,118,119,2,13,2,4.66313058333333,20.4548104716667,11513.8092198,3,NaN,NaN,NaN
22,5,11,SyncTheta,125,1050_4Hz.avi,synth36_zero_4Hz.wav,synth,4,7.52720970000155,0,22,125,127,131,111,1,14,1,4.66313058333333,20.4548104716667,11525.0258893,3,NaN,NaN,NaN
22,6,11,SyncTheta,146,1005_4Hz.avi,guitar14_zero_4Hz.wav,guitar,3,5.64627169999949,1,22,164,112,146,115,3,6,1,4.66313058333333,20.4548104716667,11534.6593288,3,NaN,NaN,NaN
22,7,11,SyncTheta,117,1144_4Hz.avi,ep39_zero_4Hz.wav,ep,4,7.23598930000117,0,22,150,117,123,132,2,10,2,4.66313058333333,20.4548104716667,11543.1926794,3,NaN,NaN,NaN
22,8,11,SyncTheta,132,1356_4Hz.avi,ep30_zero_4Hz.wav,ep,1,4.32571600000119,1,22,132,117,150,123,1,7,4,4.66313058333333,20.4548104716667,11553.7760955,3,NaN,NaN,NaN
22,9,11,SyncTheta,119,1189_4Hz.avi,willow11_zero_4Hz.wav,willow,4,7.99239020000095,1,22,120,118,152,119,4,4,3,4.66313058333333,20.4548104716667,11559.6427907,3,NaN,NaN,NaN
22,10,11,SyncTheta,127,1411_4Hz.avi,synth28_zero_4Hz.wav,synth,4,6.91471989999991,1,22,125,131,111,127,4,15,1,4.66313058333333,20.4548104716667,11570.6428235,3,NaN,NaN,NaN
22,11,11,SyncTheta,152,1445_4Hz.avi,willow2_zero_4Hz.wav,willow,2,4.14439210000091,0,22,119,118,120,152,4,5,3,4.66313058333333,20.4548104716667,11580.4761766,3,NaN,NaN,NaN
22,12,11,SyncTheta,164,1087_4Hz.avi,guitar17_zero_4Hz.wav,guitar,2,6.17110730000059,0,22,164,112,146,115,1,3,4,4.66313058333333,20.4548104716667,11587.9595667,3,NaN,NaN,NaN
22,13,11,SyncTheta,115,1370_4Hz.avi,guitar9_zero_4Hz.wav,guitar,1,3.25495860000046,0,22,146,112,164,115,4,2,3,4.66313058333333,20.4548104716667,11596.3096238,3,NaN,NaN,NaN
22,14,11,SyncTheta,111,1390_4Hz.avi,synth3_zero_4Hz.wav,synth,4,4.10119949999898,1,22,125,131,127,111,4,9,4,4.66313058333333,20.4548104716667,11601.659653,3,NaN,NaN,NaN
22,15,11,SyncTheta,131,1366_4Hz.avi,synth34_zero_4Hz.wav,synth,3,6.8563649000007,0,22,127,131,125,111,2,12,1,4.66313058333333,20.4548104716667,11607.5763233,3,NaN,NaN,NaN
22,16,11,SyncTheta,123,1067_4Hz.avi,ep37_zero_4Hz.wav,ep,1,6.05324680000012,1,22,123,132,117,150,1,16,4,4.66313058333333,20.4548104716667,11617.5763749,3,NaN,NaN,NaN
22,1,12,SyncDelta,160,1421_1.7Hz.avi,choir13_zero_1.7Hz.wav,choir,4,5.73671120000108,0,22,139,182,160,121,3,1,4,4.761138675,20.4548104716667,11767.1438575,3,NaN,NaN,NaN
22,2,12,SyncDelta,169,1083_1.7Hz.avi,acoustic43_zero_1.7Hz.wav,acoustic,2,3.35413999999946,0,22,169,133,190,107,1,6,5,4.761138675,20.4548104716667,11776.0605335,3,NaN,NaN,NaN
22,3,12,SyncDelta,192,1231_1.7Hz.avi,orch32_zero_1.7Hz.wav,orch,2,5.75019259999863,0,22,174,143,158,192,4,7,4,4.761138675,20.4548104716667,11782.7272704,3,NaN,NaN,NaN
22,4,12,SyncDelta,174,1119_1.7Hz.avi,orch45_zero_1.7Hz.wav,orch,4,7.22916239999904,1,22,192,143,158,174,4,8,2,4.761138675,20.4548104716667,11791.3939492,3,NaN,NaN,NaN
22,5,12,SyncDelta,147,1304_1.7Hz.avi,dar10_zero_1.7Hz.wav,dar,3,8.16562580000027,1,22,162,126,147,191,3,14,1,4.761138675,20.4548104716667,11801.0773863,3,NaN,NaN,NaN
22,6,12,SyncDelta,121,1354_1.7Hz.avi,choir22_zero_1.7Hz.wav,choir,1,6.75681160000022,0,22,139,121,160,182,2,13,3,4.761138675,20.4548104716667,11811.3273823,3,NaN,NaN,NaN
22,7,12,SyncDelta,190,1427_1.7Hz.avi,acoustic46_zero_1.7Hz.wav,acoustic,3,14.9046971999996,1,22,169,107,190,133,3,10,4,4.761138675,20.4548104716667,11821.3274968,3,NaN,NaN,NaN
22,8,12,SyncDelta,107,1265_1.7Hz.avi,acoustic16_zero_1.7Hz.wav,acoustic,1,5.82851969999865,0,22,169,133,190,107,4,2,3,4.761138675,20.4548104716667,11839.5108916,3,NaN,NaN,NaN
22,9,12,SyncDelta,143,1127_1.7Hz.avi,orch11_zero_1.7Hz.wav,orch,1,5.68628619999981,0,22,158,143,192,174,2,3,3,4.761138675,20.4548104716667,11847.5776031,3,NaN,NaN,NaN
22,10,12,SyncDelta,162,1358_1.7Hz.avi,dar7_zero_1.7Hz.wav,dar,2,6.07603989999916,1,22,191,162,126,147,2,16,3,4.761138675,20.4548104716667,11855.5609796,3,NaN,NaN,NaN
22,11,12,SyncDelta,158,1206_1.7Hz.avi,orch6_zero_1.7Hz.wav,orch,2,14.4703945000001,0,22,158,143,192,174,1,4,2,4.761138675,20.4548104716667,11864.2276918,3,NaN,NaN,NaN
22,12,12,SyncDelta,182,1277_1.7Hz.avi,choir39_zero_1.7Hz.wav,choir,3,4.06029649999982,1,22,160,139,182,121,3,11,1,4.761138675,20.4548104716667,11880.1277748,3,NaN,NaN,NaN
22,13,12,SyncDelta,139,1192_1.7Hz.avi,choir5_zero_1.7Hz.wav,choir,1,3.69689060000019,1,22,139,160,121,182,1,5,1,4.761138675,20.4548104716667,11886.2778745,3,NaN,NaN,NaN
22,14,12,SyncDelta,191,1314_1.7Hz.avi,dar19_zero_1.7Hz.wav,dar,3,4.62372379999942,0,22,147,162,126,191,4,9,2,4.761138675,20.4548104716667,11893.0611738,3,NaN,NaN,NaN
22,15,12,SyncDelta,126,1298_1.7Hz.avi,dar9_zero_1.7Hz.wav,dar,2,5.19916809999995,0,22,126,147,191,162,1,12,1,4.761138675,20.4548104716667,11899.3611868,3,NaN,NaN,NaN
22,16,12,SyncDelta,133,1341_1.7Hz.avi,acoustic14_zero_1.7Hz.wav,acoustic,1,3.37598040000012,1,22,133,107,169,190,1,15,5,4.761138675,20.4548104716667,11906.1445528,3,NaN,NaN,NaN
