ParticipantID,TrialNumber,BlockNumber,Condition,ClipID,VideoFile,SoundFile,SoundCategory,Response,RT,Accuracy,ConditionID,Frame1,Frame2,Frame3,Frame4,CorrectKey,EncodingPosition,Rating,BlockDuration,ExperimentDuration,MemoryTestOnset,RunNumber,Age,Handedness,Sex
7,1,1,AsyncTheta,130,1081_4Hz.avi,willow5_oneeighty_4Hz.wav,willow,4,3.27914799999996,1,7,153,156,119,130,4,9,3,5.14575481,NaN,406.814184,1,NaN,NaN,NaN
7,2,1,AsyncTheta,168,1204_4Hz.avi,guitar36_oneeighty_4Hz.wav,guitar,3,4.77549049999999,1,7,115,170,168,151,3,10,2,5.14575481,NaN,412.1807908,1,NaN,NaN,NaN
7,3,1,AsyncTheta,125,1050_4Hz.avi,synth36_oneeighty_4Hz.wav,synth,3,5.7057648,0,7,128,125,140,135,2,4,2,5.14575481,NaN,420.2642183,1,NaN,NaN,NaN
7,4,1,AsyncTheta,156,1060_4Hz.avi,willow7_oneeighty_4Hz.wav,willow,4,4.52653090000001,1,7,119,130,153,156,4,11,4,5.14575481,NaN,427.480821,1,NaN,NaN,NaN
7,5,1,AsyncTheta,170,1062_4Hz.avi,guitar3_oneeighty_4Hz.wav,guitar,4,5.78078109999996,1,7,115,151,168,170,4,14,4,5.14575481,NaN,434.0975427,1,NaN,NaN,NaN
7,6,1,AsyncTheta,119,1189_4Hz.avi,willow11_oneeighty_4Hz.wav,willow,1,3.70184840000002,1,7,119,130,156,153,1,8,4,5.14575481,NaN,441.5975567,1,NaN,NaN,NaN
7,7,1,AsyncTheta,166,1227_4Hz.avi,ep5_oneeighty_4Hz.wav,ep,2,4.15056500000003,1,7,138,166,123,173,2,2,2,5.14575481,NaN,447.9142427,1,NaN,NaN,NaN
7,8,1,AsyncTheta,153,1157_4Hz.avi,willow1_oneeighty_4Hz.wav,willow,4,3.28428129999998,1,7,130,156,119,153,4,5,5,5.14575481,NaN,453.4142802,1,NaN,NaN,NaN
7,9,1,AsyncTheta,123,1067_4Hz.avi,ep37_oneeighty_4Hz.wav,ep,4,3.28238349999998,1,7,138,166,173,123,4,6,4,5.14575481,NaN,459.0476057,1,NaN,NaN,NaN
7,10,1,AsyncTheta,135,1154_4Hz.avi,synth38_oneeighty_4Hz.wav,synth,3,4.00076539999998,0,7,135,128,140,125,1,12,3,5.14575481,NaN,464.6476278,1,NaN,NaN,NaN
7,11,1,AsyncTheta,151,1259_4Hz.avi,guitar43_oneeighty_4Hz.wav,guitar,4,4.9985605,0,7,168,151,170,115,2,16,2,5.14575481,NaN,471.4309775,1,NaN,NaN,NaN
7,12,1,AsyncTheta,140,1270_4Hz.avi,synth17_oneeighty_4Hz.wav,synth,4,6.69692430000003,0,7,125,128,140,135,3,13,4,5.14575481,NaN,477.9809676,1,NaN,NaN,NaN
7,13,1,AsyncTheta,115,1370_4Hz.avi,guitar9_oneeighty_4Hz.wav,guitar,3,6.3554992,1,7,168,151,115,170,3,15,1,5.14575481,NaN,486.3309979,1,NaN,NaN,NaN
7,14,1,AsyncTheta,173,1348_4Hz.avi,ep31_oneeighty_4Hz.wav,ep,1,9.00885240000002,1,7,173,166,138,123,1,3,3,5.14575481,NaN,495.6476922,1,NaN,NaN,NaN
7,15,1,AsyncTheta,128,1269_4Hz.avi,synth14_oneeighty_4Hz.wav,synth,3,2.96918639999996,0,7,125,128,135,140,2,1,3,5.14575481,NaN,507.4310831,1,NaN,NaN,NaN
7,16,1,AsyncTheta,138,1149_4Hz.avi,ep2_oneeighty_4Hz.wav,ep,3,4.30864329999997,0,7,138,166,123,173,1,7,4,5.14575481,NaN,513.4644605,1,NaN,NaN,NaN
7,1,2,SyncTheta,18,1101_4Hz.avi,willow13_zero_4Hz.wav,willow,1,4.42017959999998,1,7,18,32,94,92,1,6,3,5.24531959,NaN,695.6482718,1,NaN,NaN,NaN
7,2,2,SyncTheta,3,1156_4Hz.avi,guitar31_zero_4Hz.wav,guitar,1,5.65215330000001,0,7,90,84,46,3,4,7,3,5.24531959,NaN,703.0150014,1,NaN,NaN,NaN
7,3,2,SyncTheta,95,1359_4Hz.avi,synth33_zero_4Hz.wav,synth,4,5.41342589999999,1,7,8,100,51,95,4,3,1,5.24531959,NaN,711.3316784,1,NaN,NaN,NaN
7,4,2,SyncTheta,92,1030_4Hz.avi,willow23_zero_4Hz.wav,willow,3,7.66511079999998,1,7,18,32,92,94,3,10,2,5.24531959,NaN,719.1150299,1,NaN,NaN,NaN
7,5,2,SyncTheta,84,1294_4Hz.avi,guitar6_zero_4Hz.wav,guitar,4,5.8088563,1,7,90,46,3,84,4,8,2,5.24531959,NaN,728.8316959,1,NaN,NaN,NaN
7,6,2,SyncTheta,94,1109_4Hz.avi,willow6_zero_4Hz.wav,willow,2,8.31284830000004,0,7,32,18,94,92,3,5,4,5.24531959,NaN,737.0984463,1,NaN,NaN,NaN
7,7,2,SyncTheta,101,1295_4Hz.avi,ep40_zero_4Hz.wav,ep,3,4.81867479999994,0,7,101,6,99,25,1,11,5,5.24531959,NaN,747.6651116,1,NaN,NaN,NaN
7,8,2,SyncTheta,32,1360_4Hz.avi,willow10_zero_4Hz.wav,willow,2,7.21424149999996,0,7,32,94,18,92,1,1,1,5.24531959,NaN,754.7817667,1,NaN,NaN,NaN
7,9,2,SyncTheta,99,1173_4Hz.avi,ep6_zero_4Hz.wav,ep,4,9.90537829999994,0,7,99,6,25,101,1,14,4,5.24531959,NaN,763.9651618,1,NaN,NaN,NaN
7,10,2,SyncTheta,8,1252_4Hz.avi,synth25_zero_4Hz.wav,synth,2,4.23424510000007,0,7,95,51,8,100,3,4,1,5.24531959,NaN,777.1485399,1,NaN,NaN,NaN
7,11,2,SyncTheta,46,1210_4Hz.avi,guitar48_zero_4Hz.wav,guitar,1,3.51147850000007,1,7,46,90,3,84,1,15,1,5.24531959,NaN,784.4818557,1,NaN,NaN,NaN
7,12,2,SyncTheta,51,1331_4Hz.avi,synth47_zero_4Hz.wav,synth,2,6.18400410000004,0,7,51,95,100,8,1,13,3,5.24531959,NaN,790.7985706,1,NaN,NaN,NaN
7,13,2,SyncTheta,90,1273_4Hz.avi,guitar23_zero_4Hz.wav,guitar,1,11.8798998999999,0,7,46,90,3,84,2,9,4,5.24531959,NaN,798.415254,1,NaN,NaN,NaN
7,14,2,SyncTheta,25,1094_4Hz.avi,ep15_zero_4Hz.wav,ep,3,7.35713379999993,0,7,99,25,6,101,2,12,4,5.24531959,NaN,812.1653475,1,NaN,NaN,NaN
7,15,2,SyncTheta,100,1107_4Hz.avi,synth23_zero_4Hz.wav,synth,4,4.62629689999994,0,7,8,51,100,95,3,2,1,5.24531959,NaN,821.2153508,1,NaN,NaN,NaN
7,16,2,SyncTheta,6,1007_4Hz.avi,ep8_zero_4Hz.wav,ep,3,5.41022399999997,0,7,6,99,101,25,1,16,1,5.24531959,NaN,827.2153462,1,NaN,NaN,NaN
7,1,3,NoFlicker,188,1036_half_amp.avi,orch26_half_amp.wav,orch,3,5.97271380000007,1,7,145,110,188,192,3,5,4,4.548495875,NaN,989.5158044,1,NaN,NaN,NaN
7,2,3,NoFlicker,182,1277_half_amp.avi,choir39_half_amp.wav,choir,2,4.38362340000003,0,7,182,76,181,124,1,8,1,4.548495875,NaN,997.4158423,1,NaN,NaN,NaN
7,3,3,NoFlicker,136,1175_half_amp.avi,dar4_half_amp.wav,dar,3,4.39537659999996,1,7,82,191,136,187,3,3,4,4.548495875,NaN,1005.0991588,1,NaN,NaN,NaN
7,4,3,NoFlicker,145,1352_half_amp.avi,orch39_half_amp.wav,orch,2,5.51152689999992,1,7,192,145,188,110,2,7,1,4.548495875,NaN,1011.0992042,1,NaN,NaN,NaN
7,5,3,NoFlicker,76,1293_half_amp.avi,choir23_half_amp.wav,choir,4,6.4535886000001,0,7,76,182,124,181,1,9,2,4.548495875,NaN,1019.4992536,1,NaN,NaN,NaN
7,6,3,NoFlicker,110,1443_half_amp.avi,orch3_half_amp.wav,orch,4,1.67776390000017,1,7,192,188,145,110,4,4,5,4.548495875,NaN,1027.4825508,1,NaN,NaN,NaN
7,7,3,NoFlicker,79,1071_half_amp.avi,acoustic17_half_amp.wav,acoustic,2,5.50996010000017,0,7,79,113,175,190,1,12,5,4.548495875,NaN,1032.515931,1,NaN,NaN,NaN
7,8,3,NoFlicker,192,1231_half_amp.avi,orch32_half_amp.wav,orch,2,4.81170940000015,0,7,192,188,145,110,1,1,4,4.548495875,NaN,1041.0159531,1,NaN,NaN,NaN
7,9,3,NoFlicker,190,1427_half_amp.avi,acoustic46_half_amp.wav,acoustic,3,3.9982164999999,0,7,113,190,175,79,2,14,5,4.548495875,NaN,1049.1826168,1,NaN,NaN,NaN
7,10,3,NoFlicker,187,1164_half_amp.avi,dar12_half_amp.wav,dar,4,3.84544400000004,1,7,136,191,82,187,4,6,4,4.548495875,NaN,1055.6326364,1,NaN,NaN,NaN
7,11,3,NoFlicker,181,1168_half_amp.avi,choir1_half_amp.wav,choir,1,4.07284960000015,0,7,76,124,181,182,3,15,4,4.548495875,NaN,1061.6826522,1,NaN,NaN,NaN
7,12,3,NoFlicker,191,1314_half_amp.avi,dar19_half_amp.wav,dar,4,6.03987409999991,1,7,187,82,136,191,4,11,2,4.548495875,NaN,1067.1493398,1,NaN,NaN,NaN
7,13,3,NoFlicker,124,1183_half_amp.avi,choir24_half_amp.wav,choir,3,7.55715400000008,0,7,76,182,181,124,4,10,1,4.548495875,NaN,1075.9660529,1,NaN,NaN,NaN
7,14,3,NoFlicker,175,1103_half_amp.avi,acoustic10_half_amp.wav,acoustic,3,3.19432569999981,1,7,190,79,175,113,3,13,2,4.548495875,NaN,1086.3327286,1,NaN,NaN,NaN
7,15,3,NoFlicker,82,1449_half_amp.avi,dar17_half_amp.wav,dar,1,5.38402619999988,1,7,82,187,136,191,1,2,2,4.548495875,NaN,1092.4994352,1,NaN,NaN,NaN
7,16,3,NoFlicker,113,1037_half_amp.avi,acoustic23_half_amp.wav,acoustic,2,4.54801610000004,0,7,175,190,113,79,3,16,4,4.548495875,NaN,1101.0661701,1,NaN,NaN,NaN
7,1,4,SyncDelta,81,1444_1.7Hz.avi,orch4_zero_1.7Hz.wav,orch,4,3.22486470000013,1,7,33,85,57,81,4,5,2,4.32727188666667,NaN,1258.4332404,1,NaN,NaN,NaN
7,2,4,SyncDelta,52,1387_1.7Hz.avi,choir2_zero_1.7Hz.wav,choir,4,3.66536759999985,0,7,63,68,52,13,3,4,1,4.32727188666667,NaN,1263.7999491,1,NaN,NaN,NaN
7,3,4,SyncDelta,56,1063_1.7Hz.avi,dar16_zero_1.7Hz.wav,dar,1,4.10025859999996,1,7,56,43,49,31,1,7,1,4.32727188666667,NaN,1270.0166026,1,NaN,NaN,NaN
7,4,4,SyncDelta,33,1136_1.7Hz.avi,orch38_zero_1.7Hz.wav,orch,2,4.55814259999988,0,7,33,57,81,85,1,14,2,4.32727188666667,NaN,1276.5999864,1,NaN,NaN,NaN
7,5,4,SyncDelta,68,1023_1.7Hz.avi,choir3_zero_1.7Hz.wav,choir,4,4.21085479999988,0,7,63,52,68,13,3,9,1,4.32727188666667,NaN,1283.7666939,1,NaN,NaN,NaN
7,6,4,SyncDelta,85,1383_1.7Hz.avi,orch23_zero_1.7Hz.wav,orch,3,3.84975820000022,0,7,85,33,81,57,1,3,4,4.32727188666667,NaN,1289.8333566,1,NaN,NaN,NaN
7,7,4,SyncDelta,9,1054_1.7Hz.avi,acoustic44_zero_1.7Hz.wav,acoustic,2,3.64777470000013,0,7,9,47,44,23,1,1,2,4.32727188666667,NaN,1296.2166854,1,NaN,NaN,NaN
7,8,4,SyncDelta,57,1309_1.7Hz.avi,orch7_zero_1.7Hz.wav,orch,3,4.4538500000001,1,7,33,81,57,85,3,2,5,4.32727188666667,NaN,1301.466673,1,NaN,NaN,NaN
7,9,4,SyncDelta,23,1330_1.7Hz.avi,acoustic47_zero_1.7Hz.wav,acoustic,4,2.92105049999986,0,7,47,44,23,9,3,13,4,4.32727188666667,NaN,1307.8333806,1,NaN,NaN,NaN
7,10,4,SyncDelta,43,1141_1.7Hz.avi,dar13_zero_1.7Hz.wav,dar,4,3.74803959999986,1,7,56,49,31,43,4,8,1,4.32727188666667,NaN,1313.5167403,1,NaN,NaN,NaN
7,11,4,SyncDelta,63,1128_1.7Hz.avi,choir26_zero_1.7Hz.wav,choir,2,3.69102100000009,0,7,52,68,63,13,3,15,2,4.32727188666667,NaN,1319.3167184,1,NaN,NaN,NaN
7,12,4,SyncDelta,31,1404_1.7Hz.avi,dar8_zero_1.7Hz.wav,dar,3,4.43727080000008,1,7,49,43,31,56,3,12,5,4.32727188666667,NaN,1325.3667967,1,NaN,NaN,NaN
7,13,4,SyncDelta,13,1201_1.7Hz.avi,choir7_zero_1.7Hz.wav,choir,3,4.17375829999992,1,7,63,68,13,52,3,11,1,4.32727188666667,NaN,1332.2667544,1,NaN,NaN,NaN
7,14,4,SyncDelta,47,1292_1.7Hz.avi,acoustic28_zero_1.7Hz.wav,acoustic,2,8.30545349999989,0,7,44,23,47,9,3,10,3,4.32727188666667,NaN,1339.0668255,1,NaN,NaN,NaN
7,15,4,SyncDelta,49,1221_1.7Hz.avi,dar21_zero_1.7Hz.wav,dar,2,5.53542549999997,1,7,31,49,43,56,2,6,1,4.32727188666667,NaN,1349.7168511,1,NaN,NaN,NaN
7,16,4,SyncDelta,44,1254_1.7Hz.avi,acoustic48_zero_1.7Hz.wav,acoustic,1,6.90182090000008,0,7,9,47,23,44,4,16,4,4.32727188666667,NaN,1358.4168934,1,NaN,NaN,NaN
7,1,5,SyncDelta,17,1162_1.7Hz.avi,orch1_zero_1.7Hz.wav,orch,2,4.47008080000001,1,7,36,17,30,91,2,13,5,4.84334531833333,NaN,1708.6511132,2,NaN,NaN,NaN
7,2,5,SyncDelta,10,1179_1.7Hz.avi,choir4_zero_1.7Hz.wav,choir,1,2.09901749999995,0,7,12,69,10,19,3,1,2,4.84334531833333,NaN,1715.1844931,2,NaN,NaN,NaN
7,3,5,SyncDelta,29,1158_1.7Hz.avi,dar23_zero_1.7Hz.wav,dar,4,5.3461092,0,7,2,34,29,64,3,10,5,4.84334531833333,NaN,1721.1511387,2,NaN,NaN,NaN
7,4,5,SyncDelta,91,1340_1.7Hz.avi,orch46_zero_1.7Hz.wav,orch,2,4.68247729999985,0,7,36,30,17,91,4,14,2,4.84334531833333,NaN,1729.1345527,2,NaN,NaN,NaN
7,5,5,SyncDelta,12,1077_1.7Hz.avi,choir18_zero_1.7Hz.wav,choir,2,5.20879979999995,0,7,69,10,19,12,4,3,4,4.84334531833333,NaN,1735.5345433,2,NaN,NaN,NaN
7,6,5,SyncDelta,30,1016_1.7Hz.avi,orch14_zero_1.7Hz.wav,orch,1,4.34135330000004,0,7,36,17,91,30,4,7,2,4.84334531833333,NaN,1742.6345899,2,NaN,NaN,NaN
7,7,5,SyncDelta,1,1064_1.7Hz.avi,acoustic12_zero_1.7Hz.wav,acoustic,3,5.11173510000003,1,7,58,5,1,20,3,2,5,4.84334531833333,NaN,1749.6179164,2,NaN,NaN,NaN
7,8,5,SyncDelta,36,1284_1.7Hz.avi,orch29_zero_1.7Hz.wav,orch,4,7.27585320000003,0,7,17,36,91,30,2,5,1,4.84334531833333,NaN,1756.7679441,2,NaN,NaN,NaN
7,9,5,SyncDelta,5,1381_1.7Hz.avi,acoustic1_zero_1.7Hz.wav,acoustic,4,9.09865509999986,0,7,1,58,5,20,3,8,2,4.84334531833333,NaN,1765.7679671,2,NaN,NaN,NaN
7,10,5,SyncDelta,34,1319_1.7Hz.avi,dar22_zero_1.7Hz.wav,dar,1,5.05466990000014,0,7,64,29,34,2,3,11,5,4.84334531833333,NaN,1776.9179897,2,NaN,NaN,NaN
7,11,5,SyncDelta,19,1247_1.7Hz.avi,choir38_zero_1.7Hz.wav,choir,2,6.35950329999991,1,7,10,19,69,12,2,16,4,4.84334531833333,NaN,1785.3013544,2,NaN,NaN,NaN
7,12,5,SyncDelta,2,1431_1.7Hz.avi,dar24_zero_1.7Hz.wav,dar,1,4.20451449999996,0,7,64,29,34,2,4,12,4,4.84334531833333,NaN,1794.5180402,2,NaN,NaN,NaN
7,13,5,SyncDelta,69,1216_1.7Hz.avi,choir32_zero_1.7Hz.wav,choir,1,7.51700069999993,0,7,12,10,19,69,4,15,5,4.84334531833333,NaN,1800.0847469,2,NaN,NaN,NaN
7,14,5,SyncDelta,58,1323_1.7Hz.avi,acoustic29_zero_1.7Hz.wav,acoustic,1,3.1750449000001,1,7,58,20,5,1,1,4,5,4.84334531833333,NaN,1810.151418,2,NaN,NaN,NaN
7,15,5,SyncDelta,64,1098_1.7Hz.avi,dar11_zero_1.7Hz.wav,dar,1,11.9313874000002,0,7,2,29,64,34,3,6,2,4.84334531833333,NaN,1815.7514032,2,NaN,NaN,NaN
7,16,5,SyncDelta,20,1236_1.7Hz.avi,acoustic25_zero_1.7Hz.wav,acoustic,3,7.51333449999993,1,7,1,5,20,58,3,9,5,4.84334531833333,NaN,1830.484797,2,NaN,NaN,NaN
7,1,6,AsyncTheta,178,1057_4Hz.avi,willow9_oneeighty_4Hz.wav,willow,2,5.10956729999998,0,7,152,118,178,157,3,5,1,4.87586822666667,NaN,1998.9186233,2,NaN,NaN,NaN
7,2,6,AsyncTheta,185,1131_4Hz.avi,guitar45_oneeighty_4Hz.wav,guitar,3,6.49013979999995,1,7,112,164,185,172,3,4,1,4.87586822666667,NaN,2007.1352993,2,NaN,NaN,NaN
7,3,6,AsyncTheta,131,1366_4Hz.avi,synth34_oneeighty_4Hz.wav,synth,1,6.64298529999996,0,7,155,111,131,186,3,10,4,4.87586822666667,NaN,2014.9853612,2,NaN,NaN,NaN
7,4,6,AsyncTheta,157,1225_4Hz.avi,willow14_oneeighty_4Hz.wav,willow,3,6.8878744000001,1,7,152,118,157,178,3,14,4,4.87586822666667,NaN,2023.8186938,2,NaN,NaN,NaN
7,5,6,AsyncTheta,112,1388_4Hz.avi,guitar39_oneeighty_4Hz.wav,guitar,4,3.71814670000003,0,7,164,185,112,172,3,8,3,4.87586822666667,NaN,2032.1353937,2,NaN,NaN,NaN
7,6,6,AsyncTheta,118,1020_4Hz.avi,willow22_oneeighty_4Hz.wav,willow,3,10.2495483999999,1,7,157,152,118,178,3,3,1,4.87586822666667,NaN,2037.852043,2,NaN,NaN,NaN
7,7,6,AsyncTheta,176,1405_4Hz.avi,ep46_oneeighty_4Hz.wav,ep,4,7.7649907,0,7,150,176,117,189,2,1,2,4.87586822666667,NaN,2051.0854358,2,NaN,NaN,NaN
7,8,6,AsyncTheta,152,1445_4Hz.avi,willow2_oneeighty_4Hz.wav,willow,4,5.4515965999999,1,7,157,178,118,152,4,2,4,4.87586822666667,NaN,2062.0188059,2,NaN,NaN,NaN
7,9,6,AsyncTheta,117,1144_4Hz.avi,ep39_oneeighty_4Hz.wav,ep,4,3.0762537999999,1,7,150,189,176,117,4,9,3,4.87586822666667,NaN,2070.1855205,2,NaN,NaN,NaN
7,10,6,AsyncTheta,186,1031_4Hz.avi,synth7_oneeighty_4Hz.wav,synth,3,10.6012307999999,1,7,155,111,186,131,3,11,5,4.87586822666667,NaN,2076.5021482,2,NaN,NaN,NaN
7,11,6,AsyncTheta,164,1087_4Hz.avi,guitar17_oneeighty_4Hz.wav,guitar,3,6.00477069999988,0,7,164,112,185,172,1,15,4,4.87586822666667,NaN,2088.9855806,2,NaN,NaN,NaN
7,12,6,AsyncTheta,155,1042_4Hz.avi,synth10_oneeighty_4Hz.wav,synth,4,4.73341040000014,1,7,131,111,186,155,4,13,3,4.87586822666667,NaN,2098.0189037,2,NaN,NaN,NaN
7,13,6,AsyncTheta,172,1350_4Hz.avi,guitar10_oneeighty_4Hz.wav,guitar,1,5.47463309999966,0,7,112,164,185,172,4,12,3,4.87586822666667,NaN,2104.2022464,2,NaN,NaN,NaN
7,14,6,AsyncTheta,189,1051_4Hz.avi,ep14_oneeighty_4Hz.wav,ep,1,4.66807119999976,1,7,189,176,117,150,1,7,4,4.87586822666667,NaN,2111.9689155,2,NaN,NaN,NaN
7,15,6,AsyncTheta,111,1390_4Hz.avi,synth3_oneeighty_4Hz.wav,synth,4,5.92801849999978,1,7,155,131,186,111,4,6,5,4.87586822666667,NaN,2119.0689609,2,NaN,NaN,NaN
7,16,6,AsyncTheta,150,1394_4Hz.avi,ep11_oneeighty_4Hz.wav,ep,1,2.79250520000005,1,7,150,176,117,189,1,16,3,4.87586822666667,NaN,2127.6189946,2,NaN,NaN,NaN
7,1,7,SyncTheta,55,1044_4Hz.avi,willow4_zero_4Hz.wav,willow,2,4.33000799999991,1,7,22,55,37,66,2,13,2,4.43949519,NaN,2280.4860862,2,NaN,NaN,NaN
7,2,7,SyncTheta,7,1017_4Hz.avi,guitar47_zero_4Hz.wav,guitar,2,3.79670140000007,1,7,53,7,67,73,2,1,2,4.43949519,NaN,2287.9527943,2,NaN,NaN,NaN
7,3,7,SyncTheta,71,1076_4Hz.avi,synth21_zero_4Hz.wav,synth,3,3.51666509999995,0,7,71,35,54,70,1,6,4,4.43949519,NaN,2293.3527592,2,NaN,NaN,NaN
7,4,7,SyncTheta,66,1215_4Hz.avi,willow18_zero_4Hz.wav,willow,3,6.3540809000001,1,7,22,55,66,37,3,16,5,4.43949519,NaN,2299.1694792,2,NaN,NaN,NaN
7,5,7,SyncTheta,67,1310_4Hz.avi,guitar21_zero_4Hz.wav,guitar,3,5.95167969999966,1,7,53,73,67,7,3,8,4,4.43949519,NaN,2308.7195338,2,NaN,NaN,NaN
7,6,7,SyncTheta,22,1212_4Hz.avi,willow20_zero_4Hz.wav,willow,4,8.18908730000021,0,7,37,22,66,55,2,10,3,4.43949519,NaN,2317.7361901,2,NaN,NaN,NaN
7,7,7,SyncTheta,86,1278_4Hz.avi,ep35_zero_4Hz.wav,ep,3,5.70596889999979,0,7,16,26,65,86,4,2,2,4.43949519,NaN,2328.9362228,2,NaN,NaN,NaN
7,8,7,SyncTheta,37,1237_4Hz.avi,willow15_zero_4Hz.wav,willow,2,4.90036809999992,1,7,55,37,66,22,2,3,2,4.43949519,NaN,2336.7195835,2,NaN,NaN,NaN
7,9,7,SyncTheta,16,1442_4Hz.avi,ep34_zero_4Hz.wav,ep,4,7.59926709999991,0,7,26,16,65,86,2,9,5,4.43949519,NaN,2343.286236,2,NaN,NaN,NaN
7,10,7,SyncTheta,70,1093_4Hz.avi,synth6_zero_4Hz.wav,synth,3,5.03940069999999,0,7,54,71,35,70,4,7,4,4.43949519,NaN,2353.5862901,2,NaN,NaN,NaN
7,11,7,SyncTheta,53,1197_4Hz.avi,guitar46_zero_4Hz.wav,guitar,3,3.30798920000007,0,7,7,53,67,73,2,14,3,4.43949519,NaN,2360.3196554,2,NaN,NaN,NaN
7,12,7,SyncTheta,54,1181_4Hz.avi,synth12_zero_4Hz.wav,synth,2,5.30191909999985,0,7,54,71,35,70,1,15,3,4.43949519,NaN,2365.5696621,2,NaN,NaN,NaN
7,13,7,SyncTheta,73,1369_4Hz.avi,guitar19_zero_4Hz.wav,guitar,4,3.986175,0,7,67,73,7,53,2,11,3,4.43949519,NaN,2374.086377,2,NaN,NaN,NaN
7,14,7,SyncTheta,65,1013_4Hz.avi,ep22_zero_4Hz.wav,ep,2,4.90975479999997,0,7,16,86,26,65,4,5,4,4.43949519,NaN,2380.9363809,2,NaN,NaN,NaN
7,15,7,SyncTheta,35,1039_4Hz.avi,synth5_zero_4Hz.wav,synth,1,4.7253867000004,1,7,35,54,71,70,1,4,4,4.43949519,NaN,2387.2030256,2,NaN,NaN,NaN
7,16,7,SyncTheta,26,1190_4Hz.avi,ep7_zero_4Hz.wav,ep,1,3.45495589999973,1,7,26,86,16,65,1,12,4,4.43949519,NaN,2393.6697502,2,NaN,NaN,NaN
7,1,8,NoFlicker,158,1206_half_amp.avi,orch6_half_amp.wav,orch,3,4.01377760000014,0,7,158,142,137,174,1,10,2,4.41248790166667,NaN,2548.1201684,2,NaN,NaN,NaN
7,2,8,NoFlicker,98,1014_half_amp.avi,choir41_half_amp.wav,choir,3,5.13720490000014,0,7,88,98,139,160,2,2,4,4.41248790166667,NaN,2554.5035558,2,NaN,NaN,NaN
7,3,8,NoFlicker,147,1304_half_amp.avi,dar10_half_amp.wav,dar,2,4.50776219999989,0,7,114,162,122,147,4,13,1,4.41248790166667,NaN,2561.0868729,2,NaN,NaN,NaN
7,4,8,NoFlicker,174,1119_half_amp.avi,orch45_half_amp.wav,orch,1,5.10017389999985,0,7,158,174,142,137,2,11,1,4.41248790166667,NaN,2567.8368952,2,NaN,NaN,NaN
7,5,8,NoFlicker,88,1191_half_amp.avi,choir20_half_amp.wav,choir,4,4.50611119999985,1,7,139,160,98,88,4,3,4,4.41248790166667,NaN,2576.2202763,2,NaN,NaN,NaN
7,6,8,NoFlicker,142,1155_half_amp.avi,orch9_half_amp.wav,orch,2,4.51128390000031,0,7,142,137,158,174,1,6,1,4.41248790166667,NaN,2583.370267,2,NaN,NaN,NaN
7,7,8,NoFlicker,96,1027_half_amp.avi,acoustic40_half_amp.wav,acoustic,1,3.52381239999977,0,7,105,133,169,96,4,4,2,4.41248790166667,NaN,2589.8536499,2,NaN,NaN,NaN
7,8,8,NoFlicker,137,1303_half_amp.avi,orch10_half_amp.wav,orch,3,3.84018340000011,0,7,158,137,174,142,2,1,4,4.41248790166667,NaN,2596.0870104,2,NaN,NaN,NaN
7,9,8,NoFlicker,133,1341_half_amp.avi,acoustic14_half_amp.wav,acoustic,1,3.76501809999991,1,7,133,105,169,96,1,7,5,4.41248790166667,NaN,2602.6369903,2,NaN,NaN,NaN
7,10,8,NoFlicker,114,1322_half_amp.avi,dar14_half_amp.wav,dar,1,5.29413580000028,0,7,162,114,147,122,2,15,2,4.41248790166667,NaN,2609.3703146,2,NaN,NaN,NaN
7,11,8,NoFlicker,160,1421_half_amp.avi,choir13_half_amp.wav,choir,3,7.29219749999993,0,7,139,88,98,160,4,14,2,4.41248790166667,NaN,2616.2537235,2,NaN,NaN,NaN
7,12,8,NoFlicker,162,1358_half_amp.avi,dar7_half_amp.wav,dar,2,3.71319079999967,0,7,122,147,162,114,3,16,5,4.41248790166667,NaN,2626.8370923,2,NaN,NaN,NaN
7,13,8,NoFlicker,139,1192_half_amp.avi,choir5_half_amp.wav,choir,3,5.4155495,0,7,98,88,160,139,4,8,2,4.41248790166667,NaN,2632.7370475,2,NaN,NaN,NaN
7,14,8,NoFlicker,169,1083_half_amp.avi,acoustic43_half_amp.wav,acoustic,1,4.92274339999994,0,7,105,96,169,133,3,5,4,4.41248790166667,NaN,2640.4204565,2,NaN,NaN,NaN
7,15,8,NoFlicker,122,1289_half_amp.avi,dar3_half_amp.wav,dar,3,3.80492790000017,0,7,162,147,114,122,4,9,4,4.41248790166667,NaN,2647.6704504,2,NaN,NaN,NaN
7,16,8,NoFlicker,105,1003_half_amp.avi,acoustic6_half_amp.wav,acoustic,2,8.39039470000034,0,7,105,169,96,133,1,12,4,4.41248790166667,NaN,2653.603812,2,NaN,NaN,NaN
7,1,9,AsyncTheta,149,1200_4Hz.avi,willow8_oneeighty_4Hz.wav,willow,2,6.42473390000032,0,7,149,120,171,167,1,4,1,4.38693275333333,18.1078301966667,2919.4379222,3,NaN,NaN,NaN
7,2,9,AsyncTheta,161,1433_4Hz.avi,guitar2_oneeighty_4Hz.wav,guitar,3,4.37385910000012,0,7,161,179,146,183,1,5,3,4.38693275333333,18.1078301966667,2928.1878709,3,NaN,NaN,NaN
7,3,9,AsyncTheta,129,1286_4Hz.avi,synth30_oneeighty_4Hz.wav,synth,2,6.70144729999993,0,7,184,127,163,129,4,11,4,4.38693275333333,18.1078301966667,2935.0045695,3,NaN,NaN,NaN
7,4,9,AsyncTheta,171,1280_4Hz.avi,willow19_oneeighty_4Hz.wav,willow,3,5.40393189999986,1,7,167,120,171,149,3,12,3,4.38693275333333,18.1078301966667,2943.4212489,3,NaN,NaN,NaN
7,5,9,AsyncTheta,146,1005_4Hz.avi,guitar14_oneeighty_4Hz.wav,guitar,4,2.46810830000004,1,7,161,179,183,146,4,6,1,4.38693275333333,18.1078301966667,2950.7546601,3,NaN,NaN,NaN
7,6,9,AsyncTheta,120,1365_4Hz.avi,willow21_oneeighty_4Hz.wav,willow,3,4.70189290000008,1,7,167,149,120,171,3,2,3,4.38693275333333,18.1078301966667,2955.8712834,3,NaN,NaN,NaN
7,7,9,AsyncTheta,177,1283_4Hz.avi,ep38_oneeighty_4Hz.wav,ep,2,3.29038539999965,1,7,132,177,180,144,2,3,5,4.38693275333333,18.1078301966667,2962.6546615,3,NaN,NaN,NaN
7,8,9,AsyncTheta,167,1177_4Hz.avi,willow24_oneeighty_4Hz.wav,willow,4,2.97742159999962,0,7,167,171,120,149,1,1,2,4.38693275333333,18.1078301966667,2967.5380352,3,NaN,NaN,NaN
7,9,9,AsyncTheta,132,1356_4Hz.avi,ep30_oneeighty_4Hz.wav,ep,3,5.15390149999985,1,7,144,180,132,177,3,10,5,4.38693275333333,18.1078301966667,2973.2879981,3,NaN,NaN,NaN
7,10,9,AsyncTheta,163,1441_4Hz.avi,synth27_oneeighty_4Hz.wav,synth,3,3.26341450000018,0,7,184,127,129,163,4,13,1,4.38693275333333,18.1078301966667,2981.7713903,3,NaN,NaN,NaN
7,11,9,AsyncTheta,179,1186_4Hz.avi,guitar30_oneeighty_4Hz.wav,guitar,3,4.45986159999984,1,7,183,146,179,161,3,16,4,4.38693275333333,18.1078301966667,2986.4380685,3,NaN,NaN,NaN
7,12,9,AsyncTheta,127,1411_4Hz.avi,synth28_oneeighty_4Hz.wav,synth,4,2.23622049999994,0,7,127,184,163,129,1,15,1,4.38693275333333,18.1078301966667,2993.9214139,3,NaN,NaN,NaN
7,13,9,AsyncTheta,183,1374_4Hz.avi,guitar16_oneeighty_4Hz.wav,guitar,3,4.24910950000003,0,7,183,161,146,179,1,9,3,4.38693275333333,18.1078301966667,2999.0214011,3,NaN,NaN,NaN
7,14,9,AsyncTheta,180,1006_4Hz.avi,ep4_oneeighty_4Hz.wav,ep,1,7.42178170000034,0,7,177,132,180,144,3,8,3,4.38693275333333,18.1078301966667,3004.7214498,3,NaN,NaN,NaN
7,15,9,AsyncTheta,184,1052_4Hz.avi,synth40_oneeighty_4Hz.wav,synth,4,4.00554749999992,0,7,127,129,184,163,3,7,3,4.38693275333333,18.1078301966667,3013.604777,3,NaN,NaN,NaN
7,16,9,AsyncTheta,144,1255_4Hz.avi,ep28_oneeighty_4Hz.wav,ep,1,5.21766310000021,0,7,177,132,180,144,4,14,1,4.38693275333333,18.1078301966667,3020.7548534,3,NaN,NaN,NaN
7,1,10,SyncDelta,74,1337_1.7Hz.avi,orch24_zero_1.7Hz.wav,orch,1,4.3998173,0,7,28,102,74,42,3,15,1,4.3061081,18.1078301966667,3172.605275,3,NaN,NaN,NaN
7,2,10,SyncDelta,62,1058_1.7Hz.avi,choir19_zero_1.7Hz.wav,choir,3,2.94417890000022,1,7,72,11,62,38,3,3,1,4.3061081,18.1078301966667,3178.6552456,3,NaN,NaN,NaN
7,3,10,SyncDelta,45,1203_1.7Hz.avi,dar2_zero_1.7Hz.wav,dar,1,4.26196260000006,1,7,45,80,14,40,1,4,4,4.3061081,18.1078301966667,3184.9719752,3,NaN,NaN,NaN
7,4,10,SyncDelta,102,1012_1.7Hz.avi,orch18_zero_1.7Hz.wav,orch,3,4.13993919999984,0,7,102,42,28,74,1,16,2,4.3061081,18.1078301966667,3190.6553416,3,NaN,NaN,NaN
7,5,10,SyncDelta,72,1097_1.7Hz.avi,choir29_zero_1.7Hz.wav,choir,2,4.88272259999985,0,7,72,11,62,38,1,7,5,4.3061081,18.1078301966667,3197.788657,3,NaN,NaN,NaN
7,6,10,SyncDelta,42,1339_1.7Hz.avi,orch31_zero_1.7Hz.wav,orch,3,3.88029009999991,0,7,28,42,102,74,2,9,1,4.3061081,18.1078301966667,3205.8219949,3,NaN,NaN,NaN
7,7,10,SyncDelta,21,1112_1.7Hz.avi,acoustic32_zero_1.7Hz.wav,acoustic,2,4.89695660000007,0,7,4,60,21,39,3,1,2,4.3061081,18.1078301966667,3212.3887249,3,NaN,NaN,NaN
7,8,10,SyncDelta,28,1148_1.7Hz.avi,orch19_zero_1.7Hz.wav,orch,1,4.40422480000007,0,7,102,74,28,42,3,8,1,4.3061081,18.1078301966667,3219.038688,3,NaN,NaN,NaN
7,9,10,SyncDelta,39,1061_1.7Hz.avi,acoustic11_zero_1.7Hz.wav,acoustic,3,2.99567339999976,0,7,39,21,60,4,1,10,1,4.3061081,18.1078301966667,3225.3220411,3,NaN,NaN,NaN
7,10,10,SyncDelta,40,1239_1.7Hz.avi,dar6_zero_1.7Hz.wav,dar,1,3.82033039999988,1,7,40,14,45,80,1,5,4,4.3061081,18.1078301966667,3229.8887457,3,NaN,NaN,NaN
7,11,10,SyncDelta,38,1184_1.7Hz.avi,choir33_zero_1.7Hz.wav,choir,3,3.79011570000011,0,7,38,62,72,11,1,14,2,4.3061081,18.1078301966667,3235.3220646,3,NaN,NaN,NaN
7,12,10,SyncDelta,80,1082_1.7Hz.avi,dar15_zero_1.7Hz.wav,dar,4,7.84166109999978,0,7,14,40,80,45,3,12,4,4.3061081,18.1078301966667,3241.4888064,3,NaN,NaN,NaN
7,13,10,SyncDelta,11,1448_1.7Hz.avi,choir36_zero_1.7Hz.wav,choir,3,5.15042350000022,1,7,38,62,11,72,3,13,5,4.3061081,18.1078301966667,3251.9888444,3,NaN,NaN,NaN
7,14,10,SyncDelta,4,1167_1.7Hz.avi,acoustic37_zero_1.7Hz.wav,acoustic,3,5.25178489999962,0,7,21,60,39,4,4,6,5,4.3061081,18.1078301966667,3259.78884,3,NaN,NaN,NaN
7,15,10,SyncDelta,14,1416_1.7Hz.avi,dar1_zero_1.7Hz.wav,dar,4,8.14243549999992,0,7,40,80,14,45,3,2,1,4.3061081,18.1078301966667,3267.2055506,3,NaN,NaN,NaN
7,16,10,SyncDelta,60,1249_1.7Hz.avi,acoustic20_zero_1.7Hz.wav,acoustic,1,6.8304892000001,0,7,21,4,39,60,4,11,3,4.3061081,18.1078301966667,3277.7721865,3,NaN,NaN,NaN
7,1,11,NoFlicker,165,1410_half_amp.avi,orch43_half_amp.wav,orch,1,4.66385600000012,1,7,165,143,141,134,1,11,4,4.41794410666667,18.1078301966667,3434.0226284,3,NaN,NaN,NaN
7,2,11,NoFlicker,78,1301_half_amp.avi,choir11_half_amp.wav,choir,1,4.28781509999999,1,7,78,97,159,121,1,6,4,4.41794410666667,18.1078301966667,3441.1893441,3,NaN,NaN,NaN
7,3,11,NoFlicker,126,1298_half_amp.avi,dar9_half_amp.wav,dar,4,7.01916699999992,0,7,116,126,103,154,2,7,4,4.41794410666667,18.1078301966667,3448.5393912,3,NaN,NaN,NaN
7,4,11,NoFlicker,143,1127_half_amp.avi,orch11_half_amp.wav,orch,4,4.21417750000001,0,7,165,134,143,141,3,14,2,4.41794410666667,18.1078301966667,3458.4060633,3,NaN,NaN,NaN
7,5,11,NoFlicker,121,1354_half_amp.avi,choir22_half_amp.wav,choir,4,3.26108650000015,1,7,97,159,78,121,4,10,4,4.41794410666667,18.1078301966667,3464.0060725,3,NaN,NaN,NaN
7,6,11,NoFlicker,134,1026_half_amp.avi,orch16_half_amp.wav,orch,4,3.68529200000012,0,7,134,165,143,141,1,9,2,4.41794410666667,18.1078301966667,3469.8894246,3,NaN,NaN,NaN
7,7,11,NoFlicker,148,1121_half_amp.avi,acoustic26_half_amp.wav,acoustic,3,4.43301579999979,1,7,107,104,148,83,3,2,4,4.41794410666667,18.1078301966667,3475.6894713,3,NaN,NaN,NaN
7,8,11,NoFlicker,141,1401_half_amp.avi,orch12_half_amp.wav,orch,1,7.78476909999972,0,7,134,141,143,165,2,4,4,4.41794410666667,18.1078301966667,3482.1227625,3,NaN,NaN,NaN
7,9,11,NoFlicker,104,1111_half_amp.avi,acoustic31_half_amp.wav,acoustic,2,4.04283209999994,1,7,83,104,148,107,2,5,5,4.41794410666667,18.1078301966667,3491.7728262,3,NaN,NaN,NaN
7,10,11,NoFlicker,154,1074_half_amp.avi,dar5_half_amp.wav,dar,3,2.69164430000001,1,7,103,116,154,126,3,12,5,4.41794410666667,18.1078301966667,3498.1395117,3,NaN,NaN,NaN
7,11,11,NoFlicker,97,1368_half_amp.avi,choir30_half_amp.wav,choir,2,1.91545570000017,0,7,78,121,97,159,3,16,5,4.41794410666667,18.1078301966667,3503.6061918,3,NaN,NaN,NaN
7,12,11,NoFlicker,103,1084_half_amp.avi,dar20_half_amp.wav,dar,4,8.91547309999987,0,7,154,103,116,126,2,13,2,4.41794410666667,18.1078301966667,3509.0062022,3,NaN,NaN,NaN
7,13,11,NoFlicker,159,1091_half_amp.avi,choir8_half_amp.wav,choir,1,7.46248560000004,0,7,78,121,159,97,3,15,5,4.41794410666667,18.1078301966667,3520.0728751,3,NaN,NaN,NaN
7,14,11,NoFlicker,107,1265_half_amp.avi,acoustic16_half_amp.wav,acoustic,2,5.26350569999977,0,7,83,148,104,107,4,3,4,4.41794410666667,18.1078301966667,3529.5562758,3,NaN,NaN,NaN
7,15,11,NoFlicker,116,1420_half_amp.avi,dar18_half_amp.wav,dar,4,4.63196379999999,0,7,154,116,103,126,2,1,5,4.41794410666667,18.1078301966667,3537.5729468,3,NaN,NaN,NaN
7,16,11,NoFlicker,83,1139_half_amp.avi,acoustic27_half_amp.wav,acoustic,2,4.62034650000032,0,7,148,104,107,83,4,8,4,4.41794410666667,18.1078301966667,3545.1896681,3,NaN,NaN,NaN
7,1,12,SyncTheta,75,1040_4Hz.avi,willow17_zero_4Hz.wav,willow,3,9.25450030000002,0,7,75,48,108,27,1,9,4,4.31012461333333,18.1078301966667,3685.9900117,3,NaN,NaN,NaN
7,2,12,SyncTheta,15,1422_4Hz.avi,guitar37_zero_4Hz.wav,guitar,4,4.38940409999987,1,7,59,93,77,15,4,4,3,4.31012461333333,18.1078301966667,3698.0067586,3,NaN,NaN,NaN
7,3,12,SyncTheta,89,1393_4Hz.avi,synth41_zero_4Hz.wav,synth,2,4.57444319999968,1,7,109,89,61,50,2,5,1,4.31012461333333,18.1078301966667,3704.3901199,3,NaN,NaN,NaN
7,4,12,SyncTheta,48,1021_4Hz.avi,willow12_zero_4Hz.wav,willow,2,6.55829349999976,1,7,27,48,75,108,2,16,4,4.31012461333333,18.1078301966667,3710.6234171,3,NaN,NaN,NaN
7,5,12,SyncTheta,77,1008_4Hz.avi,guitar42_zero_4Hz.wav,guitar,3,4.70991830000003,0,7,59,93,15,77,4,8,4,4.31012461333333,18.1078301966667,3719.4401595,3,NaN,NaN,NaN
7,6,12,SyncTheta,27,1202_4Hz.avi,willow16_zero_4Hz.wav,willow,2,7.78067859999965,0,7,48,108,27,75,3,3,4,4.31012461333333,18.1078301966667,3726.3068173,3,NaN,NaN,NaN
7,7,12,SyncTheta,24,1217_4Hz.avi,ep44_zero_4Hz.wav,ep,1,4.9329287999999,0,7,106,87,41,24,4,7,5,4.31012461333333,18.1078301966667,3735.673482,3,NaN,NaN,NaN
7,8,12,SyncTheta,108,1415_4Hz.avi,willow3_zero_4Hz.wav,willow,2,7.11304289999998,0,7,75,27,48,108,4,2,4,4.31012461333333,18.1078301966667,3743.8068663,3,NaN,NaN,NaN
7,9,12,SyncTheta,106,1113_4Hz.avi,ep29_zero_4Hz.wav,ep,2,5.57517009999992,0,7,41,24,87,106,4,12,1,4.31012461333333,18.1078301966667,3754.0902628,3,NaN,NaN,NaN
7,10,12,SyncTheta,50,1049_4Hz.avi,synth43_zero_4Hz.wav,synth,4,4.68648470000016,0,7,50,109,89,61,1,6,2,4.31012461333333,18.1078301966667,3761.5902508,3,NaN,NaN,NaN
7,11,12,SyncTheta,59,1346_4Hz.avi,guitar33_zero_4Hz.wav,guitar,3,4.63358329999983,1,7,93,77,59,15,3,15,4,4.31012461333333,18.1078301966667,3768.1902645,3,NaN,NaN,NaN
7,12,12,SyncTheta,61,1207_4Hz.avi,synth46_zero_4Hz.wav,synth,2,4.17056430000002,0,7,109,50,89,61,4,10,1,4.31012461333333,18.1078301966667,3774.5736504,3,NaN,NaN,NaN
7,13,12,SyncTheta,93,1046_4Hz.avi,guitar18_zero_4Hz.wav,guitar,4,5.03841899999998,1,7,77,59,15,93,4,13,4,4.31012461333333,18.1078301966667,3780.2569731,3,NaN,NaN,NaN
7,14,12,SyncTheta,87,1142_4Hz.avi,ep3_zero_4Hz.wav,ep,3,5.04884689999972,0,7,87,106,41,24,1,11,2,4.31012461333333,18.1078301966667,3788.5403602,3,NaN,NaN,NaN
7,15,12,SyncTheta,109,1299_4Hz.avi,synth18_zero_4Hz.wav,synth,1,3.42906709999988,0,7,89,50,61,109,4,1,2,4.31012461333333,18.1078301966667,3796.5570985,3,NaN,NaN,NaN
7,16,12,SyncTheta,41,1132_4Hz.avi,ep10_zero_4Hz.wav,ep,2,5.2596080000003,1,7,24,41,87,106,2,14,1,4.31012461333333,18.1078301966667,3803.340358,3,NaN,NaN,NaN
