ParticipantID,TrialNumber,BlockNumber,Condition,ClipID,VideoFile,SoundFile,SoundCategory,Response,RT,Accuracy,ConditionID,Frame1,Frame2,Frame3,Frame4,CorrectKey,EncodingPosition,Rating,BlockDuration,ExperimentDuration,MemoryTestOnset,RunNumber,Age,Handedness,Sex
6,1,1,AsyncTheta,13,1201_4Hz.avi,choir7_oneeighty_4Hz.wav,choir,2,5.95276999999987,0,6,11,52,13,68,3,3,2,5.22768201666667,NaN,4209.0521982,1,NaN,NaN,NaN
6,2,1,AsyncTheta,47,1292_4Hz.avi,acoustic28_oneeighty_4Hz.wav,acoustic,1,3.4006430999998,1,6,47,4,23,9,1,5,5,5.22768201666667,NaN,4217.0689137,1,NaN,NaN,NaN
6,3,1,AsyncTheta,57,1309_4Hz.avi,orch7_oneeighty_4Hz.wav,orch,1,5.70639229999961,1,6,57,85,33,28,1,16,2,5.22768201666667,NaN,4222.6022689,1,NaN,NaN,NaN
6,4,1,AsyncTheta,4,1167_4Hz.avi,acoustic37_oneeighty_4Hz.wav,acoustic,3,6.39448340000035,1,6,47,23,4,9,3,15,1,5.22768201666667,NaN,4231.6522791,1,NaN,NaN,NaN
6,5,1,AsyncTheta,52,1387_4Hz.avi,choir2_oneeighty_4Hz.wav,choir,3,5.27567139999974,0,6,11,52,68,13,2,2,2,5.22768201666667,NaN,4239.8523476,1,NaN,NaN,NaN
6,6,1,AsyncTheta,23,1330_4Hz.avi,acoustic47_oneeighty_4Hz.wav,acoustic,1,3.53346109999984,1,6,23,9,47,4,1,4,4,5.22768201666667,NaN,4248.0190237,1,NaN,NaN,NaN
6,7,1,AsyncTheta,43,1141_4Hz.avi,dar13_oneeighty_4Hz.wav,dar,2,5.0110193999999,1,6,31,43,56,14,2,7,3,5.22768201666667,NaN,4254.2524193,1,NaN,NaN,NaN
6,8,1,AsyncTheta,33,1136_4Hz.avi,orch38_oneeighty_4Hz.wav,orch,2,4.52870520000033,1,6,57,33,85,28,2,10,5,5.22768201666667,NaN,4261.8524419,1,NaN,NaN,NaN
6,9,1,AsyncTheta,56,1063_4Hz.avi,dar16_oneeighty_4Hz.wav,dar,3,4.15418489999956,0,6,31,14,43,56,4,8,2,5.22768201666667,NaN,4267.7357717,1,NaN,NaN,NaN
6,10,1,AsyncTheta,9,1054_4Hz.avi,acoustic44_oneeighty_4Hz.wav,acoustic,1,3.61558799999966,1,6,9,47,23,4,1,14,4,5.22768201666667,NaN,4274.7191756,1,NaN,NaN,NaN
6,11,1,AsyncTheta,68,1023_4Hz.avi,choir3_oneeighty_4Hz.wav,choir,3,5.41981200000009,1,6,13,11,68,52,3,1,1,5.22768201666667,NaN,4280.8025103,1,NaN,NaN,NaN
6,12,1,AsyncTheta,85,1383_4Hz.avi,orch23_oneeighty_4Hz.wav,orch,4,5.8273838999994,0,6,85,57,33,28,1,12,4,5.22768201666667,NaN,4288.5358746,1,NaN,NaN,NaN
6,13,1,AsyncTheta,28,1148_4Hz.avi,orch19_oneeighty_4Hz.wav,orch,1,6.15652790000058,0,6,85,28,57,33,2,9,1,5.22768201666667,NaN,4297.6526152,1,NaN,NaN,NaN
6,14,1,AsyncTheta,14,1416_4Hz.avi,dar1_oneeighty_4Hz.wav,dar,3,4.29413310000018,0,6,43,31,56,14,4,13,2,5.22768201666667,NaN,4305.652652,1,NaN,NaN,NaN
6,15,1,AsyncTheta,31,1404_4Hz.avi,dar8_oneeighty_4Hz.wav,dar,3,2.52181399999972,1,6,43,14,31,56,3,11,5,5.22768201666667,NaN,4311.8360122,1,NaN,NaN,NaN
6,16,1,AsyncTheta,11,1448_4Hz.avi,choir36_oneeighty_4Hz.wav,choir,3,4.77507249999962,0,6,11,68,52,13,1,6,4,5.22768201666667,NaN,4316.9027034,1,NaN,NaN,NaN
6,1,2,NoFlicker,77,1008_half_amp.avi,guitar42_half_amp.wav,guitar,2,4.66350820000025,0,6,15,46,84,77,4,9,3,4.809169895,NaN,4493.0202029,1,NaN,NaN,NaN
6,2,2,NoFlicker,25,1094_half_amp.avi,ep15_half_amp.wav,ep,2,4.50721729999987,1,6,24,25,87,99,2,10,5,4.809169895,NaN,4500.8368741,1,NaN,NaN,NaN
6,3,2,NoFlicker,92,1030_half_amp.avi,willow23_half_amp.wav,willow,4,4.18507210000007,0,6,92,32,75,27,1,8,1,4.809169895,NaN,4507.3202364,1,NaN,NaN,NaN
6,4,2,NoFlicker,24,1217_half_amp.avi,ep44_half_amp.wav,ep,4,5.08611720000044,0,6,24,99,25,87,1,12,4,4.809169895,NaN,4513.5869341,1,NaN,NaN,NaN
6,5,2,NoFlicker,46,1210_half_amp.avi,guitar48_half_amp.wav,guitar,1,6.53157239999928,1,6,46,15,77,84,1,7,5,4.809169895,NaN,4520.920302,1,NaN,NaN,NaN
6,6,2,NoFlicker,87,1142_half_amp.avi,ep3_half_amp.wav,ep,1,6.91180080000049,0,6,99,25,24,87,4,2,5,4.809169895,NaN,4529.3370398,1,NaN,NaN,NaN
6,7,2,NoFlicker,89,1393_half_amp.avi,synth41_half_amp.wav,synth,4,5.87892389999979,0,6,51,50,89,95,3,6,5,4.809169895,NaN,4539.1870851,1,NaN,NaN,NaN
6,8,2,NoFlicker,27,1202_half_amp.avi,willow16_half_amp.wav,willow,1,1.88330269999915,0,6,32,92,27,75,3,4,3,4.809169895,NaN,4546.6037898,1,NaN,NaN,NaN
6,9,2,NoFlicker,50,1049_half_amp.avi,synth43_half_amp.wav,synth,2,5.22678470000028,1,6,95,50,51,89,2,13,5,4.809169895,NaN,4552.3204521,1,NaN,NaN,NaN
6,10,2,NoFlicker,99,1173_half_amp.avi,ep6_half_amp.wav,ep,4,5.67386640000041,1,6,87,25,24,99,4,11,4,4.809169895,NaN,4560.42052,1,NaN,NaN,NaN
6,11,2,NoFlicker,15,1422_half_amp.avi,guitar37_half_amp.wav,guitar,3,4.4844235999999,0,6,46,15,77,84,2,1,4,4.809169895,NaN,4568.4205312,1,NaN,NaN,NaN
6,12,2,NoFlicker,75,1040_half_amp.avi,willow17_half_amp.wav,willow,4,4.12756380000064,1,6,32,27,92,75,4,5,5,4.809169895,NaN,4575.4205685,1,NaN,NaN,NaN
6,13,2,NoFlicker,32,1360_half_amp.avi,willow10_half_amp.wav,willow,2,6.05277209999986,0,6,32,92,75,27,1,3,5,4.809169895,NaN,4582.1372879,1,NaN,NaN,NaN
6,14,2,NoFlicker,95,1359_half_amp.avi,synth33_half_amp.wav,synth,1,3.52511529999992,0,6,89,50,95,51,3,16,1,4.809169895,NaN,4590.0373376,1,NaN,NaN,NaN
6,15,2,NoFlicker,51,1331_half_amp.avi,synth47_half_amp.wav,synth,2,8.32722730000023,1,6,95,51,89,50,2,15,5,4.809169895,NaN,4596.0039956,1,NaN,NaN,NaN
6,16,2,NoFlicker,84,1294_half_amp.avi,guitar6_half_amp.wav,guitar,2,2.80405630000041,1,6,77,84,15,46,2,14,4,4.809169895,NaN,4607.354076,1,NaN,NaN,NaN
6,1,3,SyncTheta,183,1374_4Hz.avi,guitar16_zero_4Hz.wav,guitar,4,8.36085010000079,0,6,183,179,146,115,1,8,3,4.56927262333333,NaN,4763.9547858,1,NaN,NaN,NaN
6,2,3,SyncTheta,177,1283_4Hz.avi,ep38_zero_4Hz.wav,ep,3,5.11654580000049,1,6,180,123,177,132,3,5,5,4.56927262333333,NaN,4775.5882016,1,NaN,NaN,NaN
6,3,3,SyncTheta,120,1365_4Hz.avi,willow21_zero_4Hz.wav,willow,1,2.65361089999988,0,6,171,167,120,119,3,14,1,4.56927262333333,NaN,4783.2215497,1,NaN,NaN,NaN
6,4,3,SyncTheta,132,1356_4Hz.avi,ep30_zero_4Hz.wav,ep,4,4.3303492999994,1,6,123,180,177,132,4,15,5,4.56927262333333,NaN,4788.9382364,1,NaN,NaN,NaN
6,5,3,SyncTheta,146,1005_4Hz.avi,guitar14_zero_4Hz.wav,guitar,3,4.88571140000022,1,6,115,179,146,183,3,6,2,4.56927262333333,NaN,4796.2549386,1,NaN,NaN,NaN
6,6,3,SyncTheta,180,1006_4Hz.avi,ep4_zero_4Hz.wav,ep,3,6.05039879999913,1,6,177,123,180,132,3,1,4,4.56927262333333,NaN,4803.9383389,1,NaN,NaN,NaN
6,7,3,SyncTheta,184,1052_4Hz.avi,synth40_zero_4Hz.wav,synth,1,7.48027259999981,0,6,127,184,125,163,2,3,1,4.56927262333333,NaN,4813.3050171,1,NaN,NaN,NaN
6,8,3,SyncTheta,171,1280_4Hz.avi,willow19_zero_4Hz.wav,willow,4,6.44205489999968,0,6,171,120,167,119,1,10,4,4.56927262333333,NaN,4824.0717401,1,NaN,NaN,NaN
6,9,3,SyncTheta,163,1441_4Hz.avi,synth27_zero_4Hz.wav,synth,3,3.35426910000024,1,6,127,125,163,184,3,9,5,4.56927262333333,NaN,4833.121806,1,NaN,NaN,NaN
6,10,3,SyncTheta,123,1067_4Hz.avi,ep37_zero_4Hz.wav,ep,3,3.83922639999946,1,6,132,180,123,177,3,7,5,4.56927262333333,NaN,4839.4384803,1,NaN,NaN,NaN
6,11,3,SyncTheta,115,1370_4Hz.avi,guitar9_zero_4Hz.wav,guitar,4,4.43310939999992,0,6,183,115,179,146,2,4,2,4.56927262333333,NaN,4844.6885031,1,NaN,NaN,NaN
6,12,3,SyncTheta,167,1177_4Hz.avi,willow24_zero_4Hz.wav,willow,1,3.68092439999964,0,6,119,171,167,120,3,11,3,4.56927262333333,NaN,4851.0718991,1,NaN,NaN,NaN
6,13,3,SyncTheta,119,1189_4Hz.avi,willow11_zero_4Hz.wav,willow,2,6.92732849999993,0,6,171,120,167,119,4,2,5,4.56927262333333,NaN,4857.32189,1,NaN,NaN,NaN
6,14,3,SyncTheta,125,1050_4Hz.avi,synth36_zero_4Hz.wav,synth,2,4.54600719999962,1,6,127,125,163,184,2,16,4,4.56927262333333,NaN,4866.4053033,1,NaN,NaN,NaN
6,15,3,SyncTheta,127,1411_4Hz.avi,synth28_zero_4Hz.wav,synth,3,4.48621800000001,0,6,184,125,163,127,4,12,4,4.56927262333333,NaN,4872.9219963,1,NaN,NaN,NaN
6,16,3,SyncTheta,179,1186_4Hz.avi,guitar30_zero_4Hz.wav,guitar,2,4.19818599999962,1,6,115,179,146,183,2,13,4,4.56927262333333,NaN,4880.4220001,1,NaN,NaN,NaN
6,1,4,SyncDelta,121,1354_1.7Hz.avi,choir22_zero_1.7Hz.wav,choir,1,7.1057480999998,1,6,121,160,97,88,1,7,5,4.73229230833333,NaN,5051.9728113,1,NaN,NaN,NaN
6,2,4,SyncDelta,169,1083_1.7Hz.avi,acoustic43_zero_1.7Hz.wav,acoustic,2,4.48841130000073,0,6,104,107,96,169,4,9,2,4.73229230833333,NaN,5062.1228636,1,NaN,NaN,NaN
6,3,4,SyncDelta,137,1303_1.7Hz.avi,orch10_zero_1.7Hz.wav,orch,4,5.40977879999991,0,6,174,137,141,143,2,15,4,4.73229230833333,NaN,5069.3395613,1,NaN,NaN,NaN
6,4,4,SyncDelta,107,1265_1.7Hz.avi,acoustic16_zero_1.7Hz.wav,acoustic,1,7.48606569999993,0,6,169,107,104,96,2,14,5,4.73229230833333,NaN,5077.8062712,1,NaN,NaN,NaN
6,5,4,SyncDelta,97,1368_1.7Hz.avi,choir30_zero_1.7Hz.wav,choir,4,4.23908719999963,0,6,97,160,88,121,1,6,5,4.73229230833333,NaN,5088.1229885,1,NaN,NaN,NaN
6,6,4,SyncDelta,104,1111_1.7Hz.avi,acoustic31_zero_1.7Hz.wav,acoustic,3,4.0766620000004,1,6,96,169,104,107,3,2,4,4.73229230833333,NaN,5094.4730178,1,NaN,NaN,NaN
6,7,4,SyncDelta,116,1420_1.7Hz.avi,dar18_zero_1.7Hz.wav,dar,3,6.2890309000004,1,6,114,126,116,162,3,4,4,4.73229230833333,NaN,5100.1564104,1,NaN,NaN,NaN
6,8,4,SyncDelta,174,1119_1.7Hz.avi,orch45_zero_1.7Hz.wav,orch,2,3.72989940000025,1,6,137,174,143,141,2,5,5,4.73229230833333,NaN,5109.4564295,1,NaN,NaN,NaN
6,9,4,SyncDelta,114,1322_1.7Hz.avi,dar14_zero_1.7Hz.wav,dar,1,3.76325059999999,0,6,162,116,114,126,3,11,3,4.73229230833333,NaN,5115.6397839,1,NaN,NaN,NaN
6,10,4,SyncDelta,96,1027_1.7Hz.avi,acoustic40_zero_1.7Hz.wav,acoustic,3,4.34560740000052,0,6,104,169,107,96,4,13,1,4.73229230833333,NaN,5122.5231796,1,NaN,NaN,NaN
6,11,4,SyncDelta,88,1191_1.7Hz.avi,choir20_zero_1.7Hz.wav,choir,2,4.7313895999996,0,6,97,160,121,88,4,3,4,4.73229230833333,NaN,5128.3398445,1,NaN,NaN,NaN
6,12,4,SyncDelta,141,1401_1.7Hz.avi,orch12_zero_1.7Hz.wav,orch,1,3.52736410000034,1,6,141,174,143,137,1,10,5,4.73229230833333,NaN,5135.9232409,1,NaN,NaN,NaN
6,13,4,SyncDelta,143,1127_1.7Hz.avi,orch11_zero_1.7Hz.wav,orch,4,8.1495831000002,1,6,141,174,137,143,4,1,5,4.73229230833333,NaN,5141.389897,1,NaN,NaN,NaN
6,14,4,SyncDelta,162,1358_1.7Hz.avi,dar7_zero_1.7Hz.wav,dar,2,5.34250489999977,1,6,116,162,114,126,2,16,5,4.73229230833333,NaN,5152.6899578,1,NaN,NaN,NaN
6,15,4,SyncDelta,126,1298_1.7Hz.avi,dar9_zero_1.7Hz.wav,dar,4,3.3569292000002,1,6,162,116,114,126,4,12,3,4.73229230833333,NaN,5159.8733242,1,NaN,NaN,NaN
6,16,4,SyncDelta,160,1421_1.7Hz.avi,choir13_zero_1.7Hz.wav,choir,1,4.01823520000016,1,6,160,121,88,97,1,8,4,4.73229230833333,NaN,5164.6067059,1,NaN,NaN,NaN
6,1,5,SyncTheta,161,1433_4Hz.avi,guitar2_zero_4Hz.wav,guitar,2,5.86640139999963,0,6,161,168,151,112,1,11,3,4.977483585,NaN,5419.274497,2,NaN,NaN,NaN
6,2,5,SyncTheta,138,1149_4Hz.avi,ep2_zero_4Hz.wav,ep,3,6.49949519999973,1,6,144,117,138,166,3,13,4,4.977483585,NaN,5427.4745325,2,NaN,NaN,NaN
6,3,5,SyncTheta,149,1200_4Hz.avi,willow8_zero_4Hz.wav,willow,1,8.50017229999958,0,6,130,149,153,118,2,9,1,4.977483585,NaN,5435.8579348,2,NaN,NaN,NaN
6,4,5,SyncTheta,166,1227_4Hz.avi,ep5_zero_4Hz.wav,ep,4,3.40335190000042,0,6,144,138,166,117,3,15,2,4.977483585,NaN,5447.3579553,2,NaN,NaN,NaN
6,5,5,SyncTheta,168,1204_4Hz.avi,guitar36_zero_4Hz.wav,guitar,2,4.85898859999998,1,6,112,168,161,151,2,10,5,4.977483585,NaN,5454.0579935,2,NaN,NaN,NaN
6,6,5,SyncTheta,117,1144_4Hz.avi,ep39_zero_4Hz.wav,ep,2,7.67537549999997,0,6,138,166,117,144,3,6,5,4.977483585,NaN,5461.1913597,2,NaN,NaN,NaN
6,7,5,SyncTheta,128,1269_4Hz.avi,synth14_zero_4Hz.wav,synth,1,3.46608749999996,1,6,128,111,129,135,1,2,5,4.977483585,NaN,5471.591405,2,NaN,NaN,NaN
6,8,5,SyncTheta,153,1157_4Hz.avi,willow1_zero_4Hz.wav,willow,1,3.41757890000008,1,6,153,118,149,130,1,4,5,4.977483585,NaN,5477.2580929,2,NaN,NaN,NaN
6,9,5,SyncTheta,129,1286_4Hz.avi,synth30_zero_4Hz.wav,synth,3,4.05571270000019,1,6,111,128,129,135,3,5,5,4.977483585,NaN,5482.8747907,2,NaN,NaN,NaN
6,10,5,SyncTheta,144,1255_4Hz.avi,ep28_zero_4Hz.wav,ep,2,4.6401593999999,0,6,138,117,166,144,4,14,5,4.977483585,NaN,5488.4414865,2,NaN,NaN,NaN
6,11,5,SyncTheta,151,1259_4Hz.avi,guitar43_zero_4Hz.wav,guitar,1,2.00139949999993,1,6,151,112,168,161,1,1,5,4.977483585,NaN,5494.7081784,2,NaN,NaN,NaN
6,12,5,SyncTheta,130,1081_4Hz.avi,willow5_zero_4Hz.wav,willow,3,3.36927530000048,1,6,153,118,130,149,3,8,5,4.977483585,NaN,5499.7248844,2,NaN,NaN,NaN
6,13,5,SyncTheta,118,1020_4Hz.avi,willow22_zero_4Hz.wav,willow,3,4.40456809999978,1,6,153,130,118,149,3,3,1,4.977483585,NaN,5505.5915647,2,NaN,NaN,NaN
6,14,5,SyncTheta,111,1390_4Hz.avi,synth3_zero_4Hz.wav,synth,1,4.32688270000017,0,6,135,129,111,128,3,16,5,4.977483585,NaN,5512.6082895,2,NaN,NaN,NaN
6,15,5,SyncTheta,135,1154_4Hz.avi,synth38_zero_4Hz.wav,synth,3,5.23953580000034,1,6,128,129,135,111,3,7,5,4.977483585,NaN,5519.3416256,2,NaN,NaN,NaN
6,16,5,SyncTheta,112,1388_4Hz.avi,guitar39_zero_4Hz.wav,guitar,4,5.21762160000071,1,6,168,161,151,112,4,12,3,4.977483585,NaN,5527.9083335,2,NaN,NaN,NaN
6,1,6,SyncDelta,159,1091_1.7Hz.avi,choir8_zero_1.7Hz.wav,choir,4,7.06684490000043,1,6,124,76,98,159,4,10,5,4.450759475,NaN,5683.2257203,2,NaN,NaN,NaN
6,2,6,SyncDelta,79,1071_1.7Hz.avi,acoustic17_zero_1.7Hz.wav,acoustic,2,4.59740740000052,0,6,79,105,113,148,1,7,4,4.450759475,NaN,5693.0591268,2,NaN,NaN,NaN
6,3,6,SyncDelta,110,1443_1.7Hz.avi,orch3_zero_1.7Hz.wav,orch,2,6.65818480000053,1,6,145,110,165,142,2,16,5,4.450759475,NaN,5699.8758289,2,NaN,NaN,NaN
6,4,6,SyncDelta,148,1121_1.7Hz.avi,acoustic26_zero_1.7Hz.wav,acoustic,1,3.89288360000046,0,6,113,148,105,79,2,13,3,4.450759475,NaN,5708.2591703,2,NaN,NaN,NaN
6,5,6,SyncDelta,76,1293_1.7Hz.avi,choir23_zero_1.7Hz.wav,choir,1,6.09721699999955,1,6,76,159,98,124,1,9,1,4.450759475,NaN,5715.4592032,2,NaN,NaN,NaN
6,6,6,SyncDelta,105,1003_1.7Hz.avi,acoustic6_zero_1.7Hz.wav,acoustic,2,4.10263269999996,0,6,113,79,105,148,3,1,5,4.450759475,NaN,5724.7592762,2,NaN,NaN,NaN
6,7,6,SyncDelta,136,1175_1.7Hz.avi,dar4_zero_1.7Hz.wav,dar,1,4.46521469999971,0,6,82,136,154,122,2,3,3,4.450759475,NaN,5730.809277,2,NaN,NaN,NaN
6,8,6,SyncDelta,142,1155_1.7Hz.avi,orch9_zero_1.7Hz.wav,orch,3,5.02813160000005,1,6,165,110,142,145,3,6,4,4.450759475,NaN,5736.8426416,2,NaN,NaN,NaN
6,9,6,SyncDelta,122,1289_1.7Hz.avi,dar3_zero_1.7Hz.wav,dar,2,5.6842314000005,0,6,82,154,122,136,3,5,4,4.450759475,NaN,5744.2427037,2,NaN,NaN,NaN
6,10,6,SyncDelta,113,1037_1.7Hz.avi,acoustic23_zero_1.7Hz.wav,acoustic,3,3.46276369999941,1,6,148,79,113,105,3,8,5,4.450759475,NaN,5752.8427442,2,NaN,NaN,NaN
6,11,6,SyncDelta,98,1014_1.7Hz.avi,choir41_zero_1.7Hz.wav,choir,1,5.32605479999984,0,6,124,98,76,159,2,2,4,4.450759475,NaN,5758.9427494,2,NaN,NaN,NaN
6,12,6,SyncDelta,165,1410_1.7Hz.avi,orch43_zero_1.7Hz.wav,orch,4,4.49036370000067,1,6,110,145,142,165,4,11,3,4.450759475,NaN,5766.8594502,2,NaN,NaN,NaN
6,13,6,SyncDelta,145,1352_1.7Hz.avi,orch39_zero_1.7Hz.wav,orch,3,5.96055319999959,0,6,165,145,142,110,2,4,4,4.450759475,NaN,5774.5928463,2,NaN,NaN,NaN
6,14,6,SyncDelta,82,1449_1.7Hz.avi,dar17_zero_1.7Hz.wav,dar,3,3.71573119999994,1,6,122,154,82,136,3,15,4,4.450759475,NaN,5783.9095263,2,NaN,NaN,NaN
6,15,6,SyncDelta,154,1074_1.7Hz.avi,dar5_zero_1.7Hz.wav,dar,4,2.27926560000014,1,6,82,136,122,154,4,14,5,4.450759475,NaN,5789.3928985,2,NaN,NaN,NaN
6,16,6,SyncDelta,124,1183_1.7Hz.avi,choir24_zero_1.7Hz.wav,choir,3,4.66196949999994,0,6,159,124,98,76,2,12,4,4.450759475,NaN,5795.6262428,2,NaN,NaN,NaN
6,1,7,AsyncTheta,69,1216_4Hz.avi,choir32_oneeighty_4Hz.wav,choir,1,7.23533409999982,1,6,69,38,72,12,1,8,5,4.513427145,NaN,5951.5270082,2,NaN,NaN,NaN
6,2,7,AsyncTheta,58,1323_4Hz.avi,acoustic29_oneeighty_4Hz.wav,acoustic,2,3.95081140000002,1,6,5,58,21,60,2,6,1,4.513427145,NaN,5961.7436885,2,NaN,NaN,NaN
6,3,7,AsyncTheta,102,1012_4Hz.avi,orch18_oneeighty_4Hz.wav,orch,1,6.25192479999987,1,6,102,30,91,42,1,13,4,4.513427145,NaN,5968.0270497,2,NaN,NaN,NaN
6,4,7,AsyncTheta,60,1249_4Hz.avi,acoustic20_oneeighty_4Hz.wav,acoustic,4,4.80060249999951,0,6,60,58,21,5,1,14,4,4.513427145,NaN,5977.2937676,2,NaN,NaN,NaN
6,5,7,AsyncTheta,12,1077_4Hz.avi,choir18_oneeighty_4Hz.wav,choir,2,6.11395619999985,0,6,12,38,69,72,1,7,5,4.513427145,NaN,5983.460457,2,NaN,NaN,NaN
6,6,7,AsyncTheta,5,1381_4Hz.avi,acoustic1_oneeighty_4Hz.wav,acoustic,1,4.78582249999999,0,6,21,5,58,60,2,4,5,4.513427145,NaN,5990.9438609,2,NaN,NaN,NaN
6,7,7,AsyncTheta,80,1082_4Hz.avi,dar15_oneeighty_4Hz.wav,dar,1,8.04566460000024,1,6,80,64,29,40,1,1,5,4.513427145,NaN,5997.6938908,2,NaN,NaN,NaN
6,8,7,AsyncTheta,42,1339_4Hz.avi,orch31_oneeighty_4Hz.wav,orch,1,3.18148979999933,1,6,42,30,102,91,1,9,5,4.513427145,NaN,6007.51057,2,NaN,NaN,NaN
6,9,7,AsyncTheta,29,1158_4Hz.avi,dar23_oneeighty_4Hz.wav,dar,2,4.46363219999967,0,6,64,40,29,80,3,2,4,4.513427145,NaN,6013.710596,2,NaN,NaN,NaN
6,10,7,AsyncTheta,21,1112_4Hz.avi,acoustic32_oneeighty_4Hz.wav,acoustic,4,4.01876510000056,1,6,58,60,5,21,4,12,1,4.513427145,NaN,6019.6439899,2,NaN,NaN,NaN
6,11,7,AsyncTheta,72,1097_4Hz.avi,choir29_oneeighty_4Hz.wav,choir,1,3.54416279999987,1,6,72,38,12,69,1,3,5,4.513427145,NaN,6026.1606662,2,NaN,NaN,NaN
6,12,7,AsyncTheta,30,1016_4Hz.avi,orch14_oneeighty_4Hz.wav,orch,2,7.89971109999988,1,6,102,30,91,42,2,11,5,4.513427145,NaN,6032.5606856,2,NaN,NaN,NaN
6,13,7,AsyncTheta,91,1340_4Hz.avi,orch46_oneeighty_4Hz.wav,orch,3,4.79180129999986,1,6,42,30,91,102,3,5,5,4.513427145,NaN,6042.9440682,2,NaN,NaN,NaN
6,14,7,AsyncTheta,40,1239_4Hz.avi,dar6_oneeighty_4Hz.wav,dar,4,3.89217100000042,0,6,40,64,80,29,1,16,4,4.513427145,NaN,6049.4441066,2,NaN,NaN,NaN
6,15,7,AsyncTheta,64,1098_4Hz.avi,dar11_oneeighty_4Hz.wav,dar,4,9.73294480000004,1,6,80,29,40,64,4,15,5,4.513427145,NaN,6055.6108001,2,NaN,NaN,NaN
6,16,7,AsyncTheta,38,1184_4Hz.avi,choir33_oneeighty_4Hz.wav,choir,2,3.06802369999969,0,6,69,12,38,72,3,10,4,4.513427145,NaN,6068.1108658,2,NaN,NaN,NaN
6,1,8,NoFlicker,53,1197_half_amp.avi,guitar46_half_amp.wav,guitar,3,4.78010269999959,1,6,93,90,53,3,3,8,5,4.48940327,NaN,6226.6949235,2,NaN,NaN,NaN
6,2,8,NoFlicker,6,1007_half_amp.avi,ep8_half_amp.wav,ep,2,4.78415669999958,1,6,26,6,106,101,2,10,5,4.48940327,NaN,6234.1449939,2,NaN,NaN,NaN
6,3,8,NoFlicker,94,1109_half_amp.avi,willow6_half_amp.wav,willow,2,8.15285110000059,0,6,94,108,18,37,1,14,4,4.48940327,NaN,6241.6283311,2,NaN,NaN,NaN
6,4,8,NoFlicker,106,1113_half_amp.avi,ep29_half_amp.wav,ep,2,3.24849390000054,1,6,6,106,26,101,2,12,5,4.48940327,NaN,6253.078379,2,NaN,NaN,NaN
6,5,8,NoFlicker,90,1273_half_amp.avi,guitar23_half_amp.wav,guitar,1,3.6683550000007,0,6,3,53,90,93,3,7,3,4.48940327,NaN,6257.7451065,2,NaN,NaN,NaN
6,6,8,NoFlicker,101,1295_half_amp.avi,ep40_half_amp.wav,ep,3,4.67951530000028,0,6,106,101,6,26,2,5,5,4.48940327,NaN,6264.295126,2,NaN,NaN,NaN
6,7,8,NoFlicker,109,1299_half_amp.avi,synth18_half_amp.wav,synth,2,2.1887585000004,1,6,54,109,8,100,2,3,5,4.48940327,NaN,6272.3284773,2,NaN,NaN,NaN
6,8,8,NoFlicker,108,1415_half_amp.avi,willow3_half_amp.wav,willow,4,5.77212799999961,1,6,37,94,18,108,4,4,4,4.48940327,NaN,6277.5951622,2,NaN,NaN,NaN
6,9,8,NoFlicker,54,1181_half_amp.avi,synth12_half_amp.wav,synth,4,7.20677759999944,1,6,100,8,109,54,4,6,5,4.48940327,NaN,6285.5618825,2,NaN,NaN,NaN
6,10,8,NoFlicker,26,1190_half_amp.avi,ep7_half_amp.wav,ep,4,5.42406489999939,1,6,106,6,101,26,4,11,4,4.48940327,NaN,6294.7619424,2,NaN,NaN,NaN
6,11,8,NoFlicker,93,1046_half_amp.avi,guitar18_half_amp.wav,guitar,2,7.01458749999983,0,6,93,53,90,3,1,2,2,4.48940327,NaN,6302.4119744,2,NaN,NaN,NaN
6,12,8,NoFlicker,18,1101_half_amp.avi,willow13_half_amp.wav,willow,1,3.62796259999959,0,6,37,108,18,94,3,9,5,4.48940327,NaN,6311.5619948,2,NaN,NaN,NaN
6,13,8,NoFlicker,37,1237_half_amp.avi,willow15_half_amp.wav,willow,2,6.28819800000019,0,6,94,108,18,37,4,1,4,4.48940327,NaN,6316.8953444,2,NaN,NaN,NaN
6,14,8,NoFlicker,8,1252_half_amp.avi,synth25_half_amp.wav,synth,1,2.25233159999971,1,6,8,109,54,100,1,16,5,4.48940327,NaN,6325.378757,2,NaN,NaN,NaN
6,15,8,NoFlicker,100,1107_half_amp.avi,synth23_half_amp.wav,synth,2,3.10041519999959,0,6,100,109,54,8,1,15,5,4.48940327,NaN,6331.4621114,2,NaN,NaN,NaN
6,16,8,NoFlicker,3,1156_half_amp.avi,guitar31_half_amp.wav,guitar,2,3.26357840000037,0,6,53,93,90,3,4,13,4,4.48940327,NaN,6337.512107,2,NaN,NaN,NaN
6,1,9,SyncDelta,78,1301_1.7Hz.avi,choir11_zero_1.7Hz.wav,choir,2,6.05695639999976,0,6,78,182,181,139,1,10,4,6.04565177833333,19.1852374833333,6864.8640996,3,NaN,NaN,NaN
6,2,9,SyncDelta,175,1103_1.7Hz.avi,acoustic10_zero_1.7Hz.wav,acoustic,3,3.23721509999996,1,6,133,190,175,83,3,8,4,6.04565177833333,19.1852374833333,6873.8307733,3,NaN,NaN,NaN
6,3,9,SyncDelta,134,1026_1.7Hz.avi,orch16_zero_1.7Hz.wav,orch,2,3.62140570000065,0,6,158,192,188,134,4,13,4,6.04565177833333,19.1852374833333,6879.3307969,3,NaN,NaN,NaN
6,4,9,SyncDelta,83,1139_1.7Hz.avi,acoustic27_zero_1.7Hz.wav,acoustic,3,4.05082370000036,0,6,190,175,133,83,4,16,4,6.04565177833333,19.1852374833333,6884.3474981,3,NaN,NaN,NaN
6,5,9,SyncDelta,181,1168_1.7Hz.avi,choir1_zero_1.7Hz.wav,choir,1,3.55532200000016,1,6,181,182,139,78,1,7,5,6.04565177833333,19.1852374833333,6891.4308584,3,NaN,NaN,NaN
6,6,9,SyncDelta,190,1427_1.7Hz.avi,acoustic46_zero_1.7Hz.wav,acoustic,3,4.63604409999971,1,6,83,133,190,175,3,2,4,6.04565177833333,19.1852374833333,6897.1142424,3,NaN,NaN,NaN
6,7,9,SyncDelta,191,1314_1.7Hz.avi,dar19_zero_1.7Hz.wav,dar,2,8.42939089999982,1,6,187,191,147,103,2,3,4,6.04565177833333,19.1852374833333,6904.030911,3,NaN,NaN,NaN
6,8,9,SyncDelta,158,1206_1.7Hz.avi,orch6_zero_1.7Hz.wav,orch,3,5.63266219999969,1,6,192,134,158,188,3,5,2,6.04565177833333,19.1852374833333,6913.8143212,3,NaN,NaN,NaN
6,9,9,SyncDelta,187,1164_1.7Hz.avi,dar12_zero_1.7Hz.wav,dar,1,3.87786869999945,0,6,103,147,191,187,4,9,3,6.04565177833333,19.1852374833333,6922.6309933,3,NaN,NaN,NaN
6,10,9,SyncDelta,133,1341_1.7Hz.avi,acoustic14_zero_1.7Hz.wav,acoustic,4,3.45972470000015,1,6,190,83,175,133,4,14,3,6.04565177833333,19.1852374833333,6928.314368,3,NaN,NaN,NaN
6,11,9,SyncDelta,139,1192_1.7Hz.avi,choir5_zero_1.7Hz.wav,choir,4,4.96930489999977,1,6,182,181,78,139,4,4,5,6.04565177833333,19.1852374833333,6933.947711,3,NaN,NaN,NaN
6,12,9,SyncDelta,188,1036_1.7Hz.avi,orch26_zero_1.7Hz.wav,orch,3,3.5322586000002,0,6,192,158,134,188,4,6,2,6.04565177833333,19.1852374833333,6942.214446,3,NaN,NaN,NaN
6,13,9,SyncDelta,192,1231_1.7Hz.avi,orch32_zero_1.7Hz.wav,orch,1,3.91017370000009,0,6,188,158,134,192,4,1,4,6.04565177833333,19.1852374833333,6948.9978224,3,NaN,NaN,NaN
6,14,9,SyncDelta,147,1304_1.7Hz.avi,dar10_zero_1.7Hz.wav,dar,2,3.49751619999915,1,6,187,147,103,191,2,15,5,6.04565177833333,19.1852374833333,6954.7311384,3,NaN,NaN,NaN
6,15,9,SyncDelta,103,1084_1.7Hz.avi,dar20_zero_1.7Hz.wav,dar,2,5.00071119999939,0,6,103,187,147,191,1,11,2,6.04565177833333,19.1852374833333,6960.21453,3,NaN,NaN,NaN
6,16,9,SyncDelta,182,1277_1.7Hz.avi,choir39_zero_1.7Hz.wav,choir,2,4.16867929999989,0,6,182,78,139,181,1,12,1,6.04565177833333,19.1852374833333,6967.5478746,3,NaN,NaN,NaN
6,1,10,AsyncTheta,10,1179_4Hz.avi,choir4_oneeighty_4Hz.wav,choir,1,5.09438649999993,0,6,62,10,19,63,2,10,4,4.036442225,19.1852374833333,7110.8985303,3,NaN,NaN,NaN
6,2,10,AsyncTheta,44,1254_4Hz.avi,acoustic48_oneeighty_4Hz.wav,acoustic,2,3.61082219999935,0,6,39,20,44,1,3,8,3,4.036442225,19.1852374833333,7119.3318986,3,NaN,NaN,NaN
6,3,10,AsyncTheta,17,1162_4Hz.avi,orch1_oneeighty_4Hz.wav,orch,3,4.04700800000046,0,6,36,74,81,17,4,16,3,4.036442225,19.1852374833333,7125.1152703,3,NaN,NaN,NaN
6,4,10,AsyncTheta,39,1061_4Hz.avi,acoustic11_oneeighty_4Hz.wav,acoustic,4,3.96792579999965,1,6,20,1,44,39,4,14,2,4.036442225,19.1852374833333,7131.1319597,3,NaN,NaN,NaN
6,5,10,AsyncTheta,63,1128_4Hz.avi,choir26_oneeighty_4Hz.wav,choir,1,3.48207189999994,1,6,63,19,10,62,1,9,5,4.036442225,19.1852374833333,7137.8986591,3,NaN,NaN,NaN
6,6,10,AsyncTheta,1,1064_4Hz.avi,acoustic12_oneeighty_4Hz.wav,acoustic,3,5.14610679999987,1,6,20,39,1,44,3,2,4,4.036442225,19.1852374833333,7143.5653853,3,NaN,NaN,NaN
6,7,10,AsyncTheta,49,1221_4Hz.avi,dar21_oneeighty_4Hz.wav,dar,4,8.42669569999998,0,6,2,45,49,34,3,1,5,4.036442225,19.1852374833333,7151.6487509,3,NaN,NaN,NaN
6,8,10,AsyncTheta,81,1444_4Hz.avi,orch4_oneeighty_4Hz.wav,orch,2,5.55885909999961,0,6,74,36,81,17,3,5,5,4.036442225,19.1852374833333,7161.7154625,3,NaN,NaN,NaN
6,9,10,AsyncTheta,34,1319_4Hz.avi,dar22_oneeighty_4Hz.wav,dar,1,3.4084200999996,0,6,45,2,49,34,4,6,4,4.036442225,19.1852374833333,7169.348801,3,NaN,NaN,NaN
6,10,10,AsyncTheta,20,1236_4Hz.avi,acoustic25_oneeighty_4Hz.wav,acoustic,4,3.38455739999972,1,6,39,1,44,20,4,11,5,4.036442225,19.1852374833333,7175.4488312,3,NaN,NaN,NaN
6,11,10,AsyncTheta,62,1058_4Hz.avi,choir19_oneeighty_4Hz.wav,choir,3,3.96373310000035,0,6,63,62,10,19,2,4,3,4.036442225,19.1852374833333,7181.6822242,3,NaN,NaN,NaN
6,12,10,AsyncTheta,36,1284_4Hz.avi,orch29_oneeighty_4Hz.wav,orch,1,3.26746019999973,0,6,74,81,36,17,3,13,1,4.036442225,19.1852374833333,7187.8655501,3,NaN,NaN,NaN
6,13,10,AsyncTheta,74,1337_4Hz.avi,orch24_oneeighty_4Hz.wav,orch,1,3.43918759999997,0,6,17,74,36,81,2,3,5,4.036442225,19.1852374833333,7193.3822797,3,NaN,NaN,NaN
6,14,10,AsyncTheta,45,1203_4Hz.avi,dar2_oneeighty_4Hz.wav,dar,2,2.00242780000008,0,6,45,2,34,49,1,15,4,4.036442225,19.1852374833333,7199.7322719,3,NaN,NaN,NaN
6,15,10,AsyncTheta,2,1431_4Hz.avi,dar24_oneeighty_4Hz.wav,dar,2,3.23304319999988,0,6,34,45,49,2,4,7,5,4.036442225,19.1852374833333,7204.7989681,3,NaN,NaN,NaN
6,16,10,AsyncTheta,19,1247_4Hz.avi,choir38_oneeighty_4Hz.wav,choir,1,3.1036811999993,1,6,19,62,63,10,1,12,5,4.036442225,19.1852374833333,7210.9489976,3,NaN,NaN,NaN
6,1,11,NoFlicker,59,1346_half_amp.avi,guitar33_half_amp.wav,guitar,3,5.3637733000005,1,6,73,67,59,7,3,13,2,4.39970364,19.1852374833333,7362.1163926,3,NaN,NaN,NaN
6,2,11,NoFlicker,41,1132_half_amp.avi,ep10_half_amp.wav,ep,3,6.2296639999995,0,6,65,41,86,16,2,11,1,4.39970364,19.1852374833333,7368.94977,3,NaN,NaN,NaN
6,3,11,NoFlicker,22,1212_half_amp.avi,willow20_half_amp.wav,willow,1,3.38564190000034,0,6,66,55,48,22,4,12,2,4.39970364,19.1852374833333,7377.2664379,3,NaN,NaN,NaN
6,4,11,NoFlicker,65,1013_half_amp.avi,ep22_half_amp.wav,ep,3,5.41965569999957,0,6,65,16,41,86,1,15,1,4.39970364,19.1852374833333,7383.8497969,3,NaN,NaN,NaN
6,5,11,NoFlicker,7,1017_half_amp.avi,guitar47_half_amp.wav,guitar,3,5.67855280000003,1,6,67,59,7,73,3,5,4,4.39970364,19.1852374833333,7390.8165,3,NaN,NaN,NaN
6,6,11,NoFlicker,86,1278_half_amp.avi,ep35_half_amp.wav,ep,1,3.580422,0,6,65,86,41,16,2,6,3,4.39970364,19.1852374833333,7399.41657,3,NaN,NaN,NaN
6,7,11,NoFlicker,61,1207_half_amp.avi,synth46_half_amp.wav,synth,1,6.0669041000001,1,6,61,35,71,70,1,3,5,4.39970364,19.1852374833333,7405.7165997,3,NaN,NaN,NaN
6,8,11,NoFlicker,55,1044_half_amp.avi,willow4_half_amp.wav,willow,2,5.8219952999998,0,6,55,48,66,22,1,4,5,4.39970364,19.1852374833333,7414.5666281,3,NaN,NaN,NaN
6,9,11,NoFlicker,35,1039_half_amp.avi,synth5_half_amp.wav,synth,3,3.36128460000054,1,6,70,71,35,61,3,7,5,4.39970364,19.1852374833333,7423.4666638,3,NaN,NaN,NaN
6,10,11,NoFlicker,16,1442_half_amp.avi,ep34_half_amp.wav,ep,1,2.86158230000001,0,6,65,86,16,41,3,14,3,4.39970364,19.1852374833333,7428.5333688,3,NaN,NaN,NaN
6,11,11,NoFlicker,73,1369_half_amp.avi,guitar19_half_amp.wav,guitar,4,4.85502850000012,1,6,59,67,7,73,4,1,4,4.39970364,19.1852374833333,7434.2833625,3,NaN,NaN,NaN
6,12,11,NoFlicker,48,1021_half_amp.avi,willow12_half_amp.wav,willow,2,6.01206720000027,0,6,66,55,48,22,3,8,5,4.39970364,19.1852374833333,7440.7333975,3,NaN,NaN,NaN
6,13,11,NoFlicker,66,1215_half_amp.avi,willow18_half_amp.wav,willow,4,3.35937990000002,0,6,48,55,66,22,3,2,1,4.39970364,19.1852374833333,7448.7334611,3,NaN,NaN,NaN
6,14,11,NoFlicker,71,1076_half_amp.avi,synth21_half_amp.wav,synth,4,8.13413950000086,0,6,61,35,71,70,3,10,4,4.39970364,19.1852374833333,7454.9334899,3,NaN,NaN,NaN
6,15,11,NoFlicker,70,1093_half_amp.avi,synth6_half_amp.wav,synth,3,3.78819039999962,0,6,35,61,71,70,4,9,5,4.39970364,19.1852374833333,7464.7502012,3,NaN,NaN,NaN
6,16,11,NoFlicker,67,1310_half_amp.avi,guitar21_half_amp.wav,guitar,2,6.42374100000052,1,6,73,67,7,59,2,16,5,4.39970364,19.1852374833333,7471.7502343,3,NaN,NaN,NaN
6,1,12,SyncTheta,164,1087_4Hz.avi,guitar17_zero_4Hz.wav,guitar,4,4.02238469999975,1,6,185,170,172,164,4,13,5,4.314475235,19.1852374833333,7626.4009235,3,NaN,NaN,NaN
6,2,12,SyncTheta,189,1051_4Hz.avi,ep14_zero_4Hz.wav,ep,4,3.36350140000013,0,6,173,150,189,176,3,9,5,4.314475235,19.1852374833333,7633.4676277,3,NaN,NaN,NaN
6,3,12,SyncTheta,156,1060_4Hz.avi,willow7_zero_4Hz.wav,willow,2,6.18857479999951,1,6,157,156,178,152,2,11,4,4.314475235,19.1852374833333,7639.850994,3,NaN,NaN,NaN
6,4,12,SyncTheta,173,1348_4Hz.avi,ep31_zero_4Hz.wav,ep,3,4.71048620000056,0,6,189,176,150,173,4,12,3,4.314475235,19.1852374833333,7648.1176901,3,NaN,NaN,NaN
6,5,12,SyncTheta,172,1350_4Hz.avi,guitar10_zero_4Hz.wav,guitar,1,2.38783860000058,1,6,172,170,164,185,1,6,4,4.314475235,19.1852374833333,7655.1677241,3,NaN,NaN,NaN
6,6,12,SyncTheta,176,1405_4Hz.avi,ep46_zero_4Hz.wav,ep,4,3.87700229999973,0,6,150,173,176,189,3,4,1,4.314475235,19.1852374833333,7659.9677521,3,NaN,NaN,NaN
6,7,12,SyncTheta,155,1042_4Hz.avi,synth10_zero_4Hz.wav,synth,2,5.39108659999965,1,6,131,155,186,140,2,5,3,4.314475235,19.1852374833333,7666.3344684,3,NaN,NaN,NaN
6,8,12,SyncTheta,178,1057_4Hz.avi,willow9_zero_4Hz.wav,willow,4,3.47304789999998,0,6,178,157,152,156,1,3,5,4.314475235,19.1852374833333,7673.9178302,3,NaN,NaN,NaN
6,9,12,SyncTheta,186,1031_4Hz.avi,synth7_zero_4Hz.wav,synth,3,6.11721899999975,0,6,140,186,155,131,2,7,4,4.314475235,19.1852374833333,7680.0178392,3,NaN,NaN,NaN
6,10,12,SyncTheta,150,1394_4Hz.avi,ep11_zero_4Hz.wav,ep,3,5.54998189999969,1,6,176,189,150,173,3,10,2,4.314475235,19.1852374833333,7688.1845744,3,NaN,NaN,NaN
6,11,12,SyncTheta,185,1131_4Hz.avi,guitar45_zero_4Hz.wav,guitar,1,4.05822779999926,0,6,170,185,172,164,2,1,3,4.314475235,19.1852374833333,7696.5512544,3,NaN,NaN,NaN
6,12,12,SyncTheta,152,1445_4Hz.avi,willow2_zero_4Hz.wav,willow,2,6.67613440000059,0,6,178,157,156,152,4,8,2,4.314475235,19.1852374833333,7703.1846115,3,NaN,NaN,NaN
6,13,12,SyncTheta,157,1225_4Hz.avi,willow14_zero_4Hz.wav,willow,4,3.36601869999959,1,6,152,178,156,157,4,2,5,4.314475235,19.1852374833333,7712.901321,3,NaN,NaN,NaN
6,14,12,SyncTheta,140,1270_4Hz.avi,synth17_zero_4Hz.wav,synth,1,2.63573019999967,1,6,140,131,186,155,1,15,5,4.314475235,19.1852374833333,7719.3513614,3,NaN,NaN,NaN
6,15,12,SyncTheta,131,1366_4Hz.avi,synth34_zero_4Hz.wav,synth,4,5.28533979999975,1,6,155,186,140,131,4,14,5,4.314475235,19.1852374833333,7724.6180802,3,NaN,NaN,NaN
6,16,12,SyncTheta,170,1062_4Hz.avi,guitar3_zero_4Hz.wav,guitar,2,4.62003749999985,1,6,185,170,172,164,2,16,2,4.314475235,19.1852374833333,7732.58478,3,NaN,NaN,NaN
