ParticipantID,TrialNumber,BlockNumber,Condition,ClipID,VideoFile,SoundFile,SoundCategory,Response,RT,Accuracy,ConditionID,Frame1,Frame2,Frame3,Frame4,CorrectKey,EncodingPosition,Rating,BlockDuration,ExperimentDuration,MemoryTestOnset,RunNumber,Age,Handedness,Sex
27,1,1,SyncDelta,57,1309_1.7Hz.avi,orch7_zero_1.7Hz.wav,orch,1,9.86859679999998,0,27,85,81,33,57,4,8,5,6.246576455,NaN,1349.1812353,1,NaN,NaN,NaN
27,2,1,SyncDelta,43,1141_1.7Hz.avi,dar13_zero_1.7Hz.wav,dar,2,9.19314880000002,0,27,49,31,56,43,4,6,2,6.246576455,NaN,1361.1312391,1,NaN,NaN,NaN
27,3,1,SyncDelta,31,1404_1.7Hz.avi,dar8_zero_1.7Hz.wav,dar,2,4.92997930000001,1,27,56,31,43,49,2,1,4,6.246576455,NaN,1373.0812599,1,NaN,NaN,NaN
27,4,1,SyncDelta,52,1387_1.7Hz.avi,choir2_zero_1.7Hz.wav,choir,2,10.7307288,0,27,13,68,52,63,3,13,1,6.246576455,NaN,1380.6313369,1,NaN,NaN,NaN
27,5,1,SyncDelta,49,1221_1.7Hz.avi,dar21_zero_1.7Hz.wav,dar,2,9.93441759999996,1,27,56,49,31,43,2,3,2,6.246576455,NaN,1393.9979922,1,NaN,NaN,NaN
27,6,1,SyncDelta,13,1201_1.7Hz.avi,choir7_zero_1.7Hz.wav,choir,1,6.21410040000001,1,27,13,68,52,63,1,10,1,6.246576455,NaN,1405.5980512,1,NaN,NaN,NaN
27,7,1,SyncDelta,56,1063_1.7Hz.avi,dar16_zero_1.7Hz.wav,dar,3,6.58034590000011,0,27,31,49,43,56,4,14,1,6.246576455,NaN,1413.2647714,1,NaN,NaN,NaN
27,8,1,SyncDelta,85,1383_1.7Hz.avi,orch23_zero_1.7Hz.wav,orch,3,9.69396140000003,0,27,33,57,81,85,4,16,2,6.246576455,NaN,1422.4147845,1,NaN,NaN,NaN
27,9,1,SyncDelta,33,1136_1.7Hz.avi,orch38_zero_1.7Hz.wav,orch,2,7.79547690000004,0,27,57,81,85,33,4,4,1,6.246576455,NaN,1434.4314788,1,NaN,NaN,NaN
27,10,1,SyncDelta,63,1128_1.7Hz.avi,choir26_zero_1.7Hz.wav,choir,4,12.0874351999998,0,27,13,63,68,52,2,12,2,6.246576455,NaN,1443.9981479,1,NaN,NaN,NaN
27,11,1,SyncDelta,44,1254_1.7Hz.avi,acoustic48_zero_1.7Hz.wav,acoustic,2,8.08648529999982,0,27,44,47,9,23,1,5,4,6.246576455,NaN,1457.9815232,1,NaN,NaN,NaN
27,12,1,SyncDelta,81,1444_1.7Hz.avi,orch4_zero_1.7Hz.wav,orch,2,6.78978380000012,0,27,81,57,85,33,1,11,3,6.246576455,NaN,1468.7315944,1,NaN,NaN,NaN
27,13,1,SyncDelta,47,1292_1.7Hz.avi,acoustic28_zero_1.7Hz.wav,acoustic,2,8.09471409999992,0,27,23,9,47,44,3,2,2,6.246576455,NaN,1477.9482642,1,NaN,NaN,NaN
27,14,1,SyncDelta,68,1023_1.7Hz.avi,choir3_zero_1.7Hz.wav,choir,1,7.96476940000002,0,27,63,68,13,52,2,15,1,6.246576455,NaN,1487.6483318,1,NaN,NaN,NaN
27,15,1,SyncDelta,9,1054_1.7Hz.avi,acoustic44_zero_1.7Hz.wav,acoustic,3,6.55826690000004,0,27,9,23,47,44,1,9,2,6.246576455,NaN,1497.881692,1,NaN,NaN,NaN
27,16,1,SyncDelta,23,1330_1.7Hz.avi,acoustic47_zero_1.7Hz.wav,acoustic,2,8.27434699999981,0,27,9,44,23,47,3,7,3,6.246576455,NaN,1507.7483638,1,NaN,NaN,NaN
27,1,2,NoFlicker,110,1443_half_amp.avi,orch3_half_amp.wav,orch,4,5.05526050000003,1,27,165,137,158,110,4,7,5,6.03294687833333,NaN,1721.5824443,1,NaN,NaN,NaN
27,2,2,NoFlicker,154,1074_half_amp.avi,dar5_half_amp.wav,dar,1,6.72627069999999,1,27,154,147,114,82,1,14,4,6.03294687833333,NaN,1729.4158125,1,NaN,NaN,NaN
27,3,2,NoFlicker,147,1304_half_amp.avi,dar10_half_amp.wav,dar,4,8.45883430000004,0,27,114,154,147,82,3,2,5,6.03294687833333,NaN,1738.099197,1,NaN,NaN,NaN
27,4,2,NoFlicker,88,1191_half_amp.avi,choir20_half_amp.wav,choir,4,12.3357473999999,0,27,76,88,139,159,2,11,4,6.03294687833333,NaN,1747.9825532,1,NaN,NaN,NaN
27,5,2,NoFlicker,82,1449_half_amp.avi,dar17_half_amp.wav,dar,3,4.01702189999992,0,27,154,147,114,82,4,10,2,6.03294687833333,NaN,1763.232567,1,NaN,NaN,NaN
27,6,2,NoFlicker,139,1192_half_amp.avi,choir5_half_amp.wav,choir,2,6.41506019999997,1,27,88,139,159,76,2,5,2,6.03294687833333,NaN,1769.7159395,1,NaN,NaN,NaN
27,7,2,NoFlicker,114,1322_half_amp.avi,dar14_half_amp.wav,dar,1,16.0641515999998,0,27,82,147,154,114,4,16,2,6.03294687833333,NaN,1778.6993087,1,NaN,NaN,NaN
27,8,2,NoFlicker,158,1206_half_amp.avi,orch6_half_amp.wav,orch,1,4.74427570000012,1,27,158,110,137,165,1,15,1,6.03294687833333,NaN,1796.3827276,1,NaN,NaN,NaN
27,9,2,NoFlicker,165,1410_half_amp.avi,orch43_half_amp.wav,orch,4,6.85352579999994,1,27,110,158,137,165,4,4,2,6.03294687833333,NaN,1804.4326994,1,NaN,NaN,NaN
27,10,2,NoFlicker,159,1091_half_amp.avi,choir8_half_amp.wav,choir,3,3.46780170000011,1,27,76,88,159,139,3,8,4,6.03294687833333,NaN,1813.8494279,1,NaN,NaN,NaN
27,11,2,NoFlicker,148,1121_half_amp.avi,acoustic26_half_amp.wav,acoustic,3,8.67112249999991,1,27,96,79,148,133,3,3,5,6.03294687833333,NaN,1819.4994696,1,NaN,NaN,NaN
27,12,2,NoFlicker,137,1303_half_amp.avi,orch10_half_amp.wav,orch,3,6.08979090000003,1,27,165,158,137,110,3,9,3,6.03294687833333,NaN,1830.8494844,1,NaN,NaN,NaN
27,13,2,NoFlicker,133,1341_half_amp.avi,acoustic14_half_amp.wav,acoustic,3,10.9227392,1,27,79,148,133,96,3,1,4,6.03294687833333,NaN,1840.266198,1,NaN,NaN,NaN
27,14,2,NoFlicker,76,1293_half_amp.avi,choir23_half_amp.wav,choir,1,3.74144690000003,1,27,76,88,139,159,1,12,3,6.03294687833333,NaN,1852.5495887,1,NaN,NaN,NaN
27,15,2,NoFlicker,96,1027_half_amp.avi,acoustic40_half_amp.wav,acoustic,3,6.20937070000014,0,27,79,96,148,133,2,13,1,6.03294687833333,NaN,1859.3495816,1,NaN,NaN,NaN
27,16,2,NoFlicker,79,1071_half_amp.avi,acoustic17_half_amp.wav,acoustic,3,9.61877430000004,0,27,79,96,133,148,1,6,5,6.03294687833333,NaN,1868.4662802,1,NaN,NaN,NaN
27,1,3,AsyncTheta,156,1060_4Hz.avi,willow7_oneeighty_4Hz.wav,willow,4,12.9509253000001,1,27,130,157,152,156,4,6,2,5.518774905,NaN,2058.1669066,1,NaN,NaN,NaN
27,2,3,AsyncTheta,155,1042_4Hz.avi,synth10_oneeighty_4Hz.wav,synth,2,5.46084679999967,1,27,140,155,128,131,2,12,3,5.518774905,NaN,2072.5669827,1,NaN,NaN,NaN
27,3,3,AsyncTheta,131,1366_4Hz.avi,synth34_oneeighty_4Hz.wav,synth,2,7.18763209999997,0,27,131,140,155,128,1,2,1,5.518774905,NaN,2081.2669968,1,NaN,NaN,NaN
27,4,3,AsyncTheta,170,1062_4Hz.avi,guitar3_oneeighty_4Hz.wav,guitar,4,6.99141820000023,1,27,151,164,172,170,4,13,4,5.518774905,NaN,2091.367023,1,NaN,NaN,NaN
27,5,3,AsyncTheta,140,1270_4Hz.avi,synth17_oneeighty_4Hz.wav,synth,4,4.71469549999983,1,27,128,131,155,140,4,7,4,5.518774905,NaN,2099.7337447,1,NaN,NaN,NaN
27,6,3,AsyncTheta,164,1087_4Hz.avi,guitar17_oneeighty_4Hz.wav,guitar,1,5.5838047000002,0,27,172,170,164,151,3,3,2,5.518774905,NaN,2106.4171053,1,NaN,NaN,NaN
27,7,3,AsyncTheta,128,1269_4Hz.avi,synth14_oneeighty_4Hz.wav,synth,4,4.29996819999997,0,27,140,128,155,131,2,16,5,5.518774905,NaN,2114.867103,1,NaN,NaN,NaN
27,8,3,AsyncTheta,130,1081_4Hz.avi,willow5_oneeighty_4Hz.wav,willow,2,10.3442538999998,1,27,156,130,157,152,2,15,3,5.518774905,NaN,2122.5004859,1,NaN,NaN,NaN
27,9,3,AsyncTheta,152,1445_4Hz.avi,willow2_oneeighty_4Hz.wav,willow,2,5.97168879999981,1,27,157,152,156,130,2,5,2,5.518774905,NaN,2135.5838677,1,NaN,NaN,NaN
27,10,3,AsyncTheta,151,1259_4Hz.avi,guitar43_oneeighty_4Hz.wav,guitar,2,5.2315080999997,0,27,164,170,172,151,4,8,2,5.518774905,NaN,2144.1339372,1,NaN,NaN,NaN
27,11,3,AsyncTheta,176,1405_4Hz.avi,ep46_oneeighty_4Hz.wav,ep,1,10.8173578999999,0,27,173,138,176,150,3,4,3,5.518774905,NaN,2152.6339002,1,NaN,NaN,NaN
27,12,3,AsyncTheta,157,1225_4Hz.avi,willow14_oneeighty_4Hz.wav,willow,2,5.27242070000011,1,27,152,157,156,130,2,10,2,5.518774905,NaN,2166.3839469,1,NaN,NaN,NaN
27,13,3,AsyncTheta,173,1348_4Hz.avi,ep31_oneeighty_4Hz.wav,ep,4,7.93627090000018,0,27,176,173,138,150,2,1,4,5.518774905,NaN,2174.0340231,1,NaN,NaN,NaN
27,14,3,AsyncTheta,172,1350_4Hz.avi,guitar10_oneeighty_4Hz.wav,guitar,3,7.55625069999996,0,27,170,172,151,164,2,14,4,5.518774905,NaN,2184.234038,1,NaN,NaN,NaN
27,15,3,AsyncTheta,150,1394_4Hz.avi,ep11_oneeighty_4Hz.wav,ep,4,8.87840299999971,1,27,138,176,173,150,4,11,4,5.518774905,NaN,2193.8007621,1,NaN,NaN,NaN
27,16,3,AsyncTheta,138,1149_4Hz.avi,ep2_oneeighty_4Hz.wav,ep,4,4.96952479999982,1,27,176,150,173,138,4,9,3,5.518774905,NaN,2204.3174116,1,NaN,NaN,NaN
27,1,4,SyncTheta,18,1101_4Hz.avi,willow13_zero_4Hz.wav,willow,2,12.8439545000001,0,27,18,94,66,75,1,7,2,5.28087361833333,NaN,2385.6014372,1,NaN,NaN,NaN
27,2,4,SyncTheta,89,1393_4Hz.avi,synth41_zero_4Hz.wav,synth,2,3.61797509999997,1,27,71,89,8,100,2,11,4,5.28087361833333,NaN,2399.8347711,1,NaN,NaN,NaN
27,3,4,SyncTheta,100,1107_4Hz.avi,synth23_zero_4Hz.wav,synth,4,6.27743069999997,0,27,89,100,71,8,2,1,2,5.28087361833333,NaN,2406.001429,1,NaN,NaN,NaN
27,4,4,SyncTheta,73,1369_4Hz.avi,guitar19_zero_4Hz.wav,guitar,4,15.8884939999998,0,27,77,90,73,3,3,8,4,5.28087361833333,NaN,2415.4848182,1,NaN,NaN,NaN
27,5,4,SyncTheta,71,1076_4Hz.avi,synth21_zero_4Hz.wav,synth,3,7.75134899999966,1,27,100,89,71,8,3,3,1,5.28087361833333,NaN,2433.5681957,1,NaN,NaN,NaN
27,6,4,SyncTheta,90,1273_4Hz.avi,guitar23_zero_4Hz.wav,guitar,3,4.2101174999998,0,27,73,3,77,90,4,2,2,5.28087361833333,NaN,2443.9015829,1,NaN,NaN,NaN
27,7,4,SyncTheta,8,1252_4Hz.avi,synth25_zero_4Hz.wav,synth,2,5.29418129999976,0,27,71,100,89,8,4,15,2,5.28087361833333,NaN,2449.8682469,1,NaN,NaN,NaN
27,8,4,SyncTheta,75,1040_4Hz.avi,willow17_zero_4Hz.wav,willow,4,7.5684027999996,0,27,18,66,75,94,3,14,3,5.28087361833333,NaN,2457.2516337,1,NaN,NaN,NaN
27,9,4,SyncTheta,94,1109_4Hz.avi,willow6_zero_4Hz.wav,willow,2,7.61565269999983,0,27,75,66,18,94,4,6,3,5.28087361833333,NaN,2467.0016432,1,NaN,NaN,NaN
27,10,4,SyncTheta,77,1008_4Hz.avi,guitar42_zero_4Hz.wav,guitar,1,4.28266739999981,1,27,77,90,73,3,1,4,4,5.28087361833333,NaN,2477.0183511,1,NaN,NaN,NaN
27,11,4,SyncTheta,101,1295_4Hz.avi,ep40_zero_4Hz.wav,ep,1,5.2739773000003,0,27,86,6,101,87,3,10,3,5.28087361833333,NaN,2483.2184045,1,NaN,NaN,NaN
27,12,4,SyncTheta,66,1215_4Hz.avi,willow18_zero_4Hz.wav,willow,3,3.89946969999983,1,27,94,75,66,18,3,13,1,5.28087361833333,NaN,2491.2684279,1,NaN,NaN,NaN
27,13,4,SyncTheta,87,1142_4Hz.avi,ep3_zero_4Hz.wav,ep,2,6.92379119999987,0,27,101,6,87,86,3,5,3,5.28087361833333,NaN,2496.7684639,1,NaN,NaN,NaN
27,14,4,SyncTheta,3,1156_4Hz.avi,guitar31_zero_4Hz.wav,guitar,4,4.35324990000026,0,27,90,3,77,73,2,9,2,5.28087361833333,NaN,2506.5018348,1,NaN,NaN,NaN
27,15,4,SyncTheta,86,1278_4Hz.avi,ep35_zero_4Hz.wav,ep,4,5.40183969999998,0,27,101,86,6,87,2,16,4,5.28087361833333,NaN,2513.4185236,1,NaN,NaN,NaN
27,16,4,SyncTheta,6,1007_4Hz.avi,ep8_zero_4Hz.wav,ep,4,5.52495580000004,0,27,86,6,101,87,2,12,3,5.28087361833333,NaN,2520.7018529,1,NaN,NaN,NaN
27,1,5,NoFlicker,143,1127_half_amp.avi,orch11_half_amp.wav,orch,4,16.6821719000004,0,27,143,141,134,142,1,5,5,6.19307107166667,NaN,2825.3027795,2,NaN,NaN,NaN
27,2,5,NoFlicker,103,1084_half_amp.avi,dar20_half_amp.wav,dar,2,8.62618359999988,1,27,122,103,116,126,2,8,2,6.19307107166667,NaN,2843.9028293,2,NaN,NaN,NaN
27,3,5,NoFlicker,126,1298_half_amp.avi,dar9_half_amp.wav,dar,1,9.00426999999991,1,27,126,122,116,103,1,2,4,6.19307107166667,NaN,2854.9695609,2,NaN,NaN,NaN
27,4,5,NoFlicker,97,1368_half_amp.avi,choir30_half_amp.wav,choir,3,9.3868252000002,1,27,121,78,97,98,3,11,5,6.19307107166667,NaN,2865.4362125,2,NaN,NaN,NaN
27,5,5,NoFlicker,116,1420_half_amp.avi,dar18_half_amp.wav,dar,3,7.12834249999969,1,27,103,122,116,126,3,6,4,6.19307107166667,NaN,2877.6696071,2,NaN,NaN,NaN
27,6,5,NoFlicker,98,1014_half_amp.avi,choir41_half_amp.wav,choir,2,5.77561279999964,1,27,78,98,121,97,2,1,5,6.19307107166667,NaN,2886.4362758,2,NaN,NaN,NaN
27,7,5,NoFlicker,122,1289_half_amp.avi,dar3_half_amp.wav,dar,1,6.89354090000006,1,27,122,116,103,126,1,13,3,6.19307107166667,NaN,2894.4030014,2,NaN,NaN,NaN
27,8,5,NoFlicker,141,1401_half_amp.avi,orch12_half_amp.wav,orch,3,8.53261370000018,1,27,142,134,141,143,3,15,5,6.19307107166667,NaN,2904.6363736,2,NaN,NaN,NaN
27,9,5,NoFlicker,134,1026_half_amp.avi,orch16_half_amp.wav,orch,1,9.80617150000035,1,27,134,142,143,141,1,4,4,6.19307107166667,NaN,2915.8530416,2,NaN,NaN,NaN
27,10,5,NoFlicker,121,1354_half_amp.avi,choir22_half_amp.wav,choir,2,3.5303558999999,1,27,78,121,97,98,2,10,2,6.19307107166667,NaN,2928.8697791,2,NaN,NaN,NaN
27,11,5,NoFlicker,83,1139_half_amp.avi,acoustic27_half_amp.wav,acoustic,2,6.77941460000011,0,27,104,105,83,107,3,7,5,6.19307107166667,NaN,2934.9531351,2,NaN,NaN,NaN
27,12,5,NoFlicker,142,1155_half_amp.avi,orch9_half_amp.wav,orch,2,4.50107869999965,1,27,134,142,143,141,2,12,4,6.19307107166667,NaN,2943.6531681,2,NaN,NaN,NaN
27,13,5,NoFlicker,105,1003_half_amp.avi,acoustic6_half_amp.wav,acoustic,1,8.51417110000011,0,27,83,107,105,104,3,3,2,6.19307107166667,NaN,2949.6031846,2,NaN,NaN,NaN
27,14,5,NoFlicker,78,1301_half_amp.avi,choir11_half_amp.wav,choir,1,3.55834860000004,1,27,78,97,121,98,1,14,3,6.19307107166667,NaN,2960.8032498,2,NaN,NaN,NaN
27,15,5,NoFlicker,104,1111_half_amp.avi,acoustic31_half_amp.wav,acoustic,3,4.41390020000017,1,27,83,107,104,105,3,16,4,6.19307107166667,NaN,2966.803212,2,NaN,NaN,NaN
27,16,5,NoFlicker,107,1265_half_amp.avi,acoustic16_half_amp.wav,acoustic,1,4.32613460000039,1,27,107,105,83,104,1,9,3,6.19307107166667,NaN,2974.4032927,2,NaN,NaN,NaN
27,1,6,SyncDelta,102,1012_1.7Hz.avi,orch18_zero_1.7Hz.wav,orch,4,9.84006709999994,1,27,42,74,30,102,4,2,4,5.17307862666667,NaN,3162.720549,2,NaN,NaN,NaN
27,2,6,SyncDelta,80,1082_1.7Hz.avi,dar15_zero_1.7Hz.wav,dar,3,7.53137069999957,0,27,80,29,45,40,1,7,4,5.17307862666667,NaN,3174.3705834,2,NaN,NaN,NaN
27,3,6,SyncDelta,29,1158_1.7Hz.avi,dar23_zero_1.7Hz.wav,dar,4,5.2542183999999,1,27,40,80,45,29,4,3,3,5.17307862666667,NaN,3184.8206481,2,NaN,NaN,NaN
27,4,6,SyncDelta,62,1058_1.7Hz.avi,choir19_zero_1.7Hz.wav,choir,2,7.07718919999979,0,27,72,38,62,12,3,11,2,5.17307862666667,NaN,3191.5207046,2,NaN,NaN,NaN
27,5,6,SyncDelta,40,1239_1.7Hz.avi,dar6_zero_1.7Hz.wav,dar,4,3.92376639999975,1,27,80,45,29,40,4,5,4,5.17307862666667,NaN,3200.2206989,2,NaN,NaN,NaN
27,6,6,SyncDelta,38,1184_1.7Hz.avi,choir33_zero_1.7Hz.wav,choir,2,6.63323960000025,0,27,12,62,72,38,4,4,2,5.17307862666667,NaN,3205.5707482,2,NaN,NaN,NaN
27,7,6,SyncDelta,45,1203_1.7Hz.avi,dar2_zero_1.7Hz.wav,dar,2,5.74978330000022,1,27,80,45,29,40,2,14,3,5.17307862666667,NaN,3214.2040988,2,NaN,NaN,NaN
27,8,6,SyncDelta,74,1337_1.7Hz.avi,orch24_zero_1.7Hz.wav,orch,3,5.45941390000007,1,27,102,30,74,42,3,16,3,5.17307862666667,NaN,3222.0374159,2,NaN,NaN,NaN
27,9,6,SyncDelta,30,1016_1.7Hz.avi,orch14_zero_1.7Hz.wav,orch,3,5.44994350000024,1,27,74,42,30,102,3,1,3,5.17307862666667,NaN,3229.804134,2,NaN,NaN,NaN
27,10,6,SyncDelta,12,1077_1.7Hz.avi,choir18_zero_1.7Hz.wav,choir,4,4.14325109999982,1,27,38,72,62,12,4,8,3,5.17307862666667,NaN,3236.7541901,2,NaN,NaN,NaN
27,11,6,SyncDelta,39,1061_1.7Hz.avi,acoustic11_zero_1.7Hz.wav,acoustic,2,8.31175669999993,1,27,5,39,21,60,2,10,2,5.17307862666667,NaN,3242.6041788,2,NaN,NaN,NaN
27,12,6,SyncDelta,42,1339_1.7Hz.avi,orch31_zero_1.7Hz.wav,orch,3,3.7959679999999,1,27,30,102,42,74,3,6,5,5.17307862666667,NaN,3254.0875222,2,NaN,NaN,NaN
27,13,6,SyncDelta,5,1381_1.7Hz.avi,acoustic1_zero_1.7Hz.wav,acoustic,4,4.1084264000001,0,27,5,60,39,21,1,9,2,5.17307862666667,NaN,3260.037544,2,NaN,NaN,NaN
27,14,6,SyncDelta,72,1097_1.7Hz.avi,choir29_zero_1.7Hz.wav,choir,1,3.65394689999994,1,27,72,12,62,38,1,12,5,5.17307862666667,NaN,3266.8875658,2,NaN,NaN,NaN
27,15,6,SyncDelta,21,1112_1.7Hz.avi,acoustic32_zero_1.7Hz.wav,acoustic,1,4.04499489999989,0,27,60,39,5,21,4,15,2,5.17307862666667,NaN,3273.5875909,2,NaN,NaN,NaN
27,16,6,SyncDelta,60,1249_1.7Hz.avi,acoustic20_zero_1.7Hz.wav,acoustic,4,10.0500487999998,0,27,60,5,21,39,1,13,1,5.17307862666667,NaN,3279.1376088,2,NaN,NaN,NaN
27,1,7,AsyncTheta,167,1177_4Hz.avi,willow24_oneeighty_4Hz.wav,willow,2,9.79590689999986,0,27,120,178,118,167,4,3,3,5.460082925,NaN,3484.5716627,2,NaN,NaN,NaN
27,2,7,AsyncTheta,127,1411_4Hz.avi,synth28_oneeighty_4Hz.wav,synth,3,4.71239590000005,1,27,186,111,127,163,3,12,1,5.460082925,NaN,3496.7550358,2,NaN,NaN,NaN
27,3,7,AsyncTheta,163,1441_4Hz.avi,synth27_oneeighty_4Hz.wav,synth,1,6.46289930000012,1,27,163,186,111,127,1,2,2,5.460082925,NaN,3503.0383652,2,NaN,NaN,NaN
27,4,7,AsyncTheta,146,1005_4Hz.avi,guitar14_oneeighty_4Hz.wav,guitar,3,6.26898170000004,0,27,146,185,179,112,1,7,2,5.460082925,NaN,3511.0884465,2,NaN,NaN,NaN
27,5,7,AsyncTheta,186,1031_4Hz.avi,synth7_oneeighty_4Hz.wav,synth,3,5.25131809999993,1,27,111,163,186,127,3,8,5,5.460082925,NaN,3520.138422,2,NaN,NaN,NaN
27,6,7,AsyncTheta,179,1186_4Hz.avi,guitar30_oneeighty_4Hz.wav,guitar,1,4.3911420000004,0,27,146,185,112,179,4,5,2,5.460082925,NaN,3527.0385423,2,NaN,NaN,NaN
27,7,7,AsyncTheta,111,1390_4Hz.avi,synth3_oneeighty_4Hz.wav,synth,2,5.5280917,1,27,163,111,186,127,2,14,3,5.460082925,NaN,3533.5884744,2,NaN,NaN,NaN
27,8,7,AsyncTheta,120,1365_4Hz.avi,willow21_oneeighty_4Hz.wav,willow,2,7.71212309999964,0,27,167,118,120,178,3,11,2,5.460082925,NaN,3541.2218569,2,NaN,NaN,NaN
27,9,7,AsyncTheta,178,1057_4Hz.avi,willow9_oneeighty_4Hz.wav,willow,1,6.38453350000009,0,27,167,118,178,120,3,1,2,5.460082925,NaN,3551.9385285,2,NaN,NaN,NaN
27,10,7,AsyncTheta,185,1131_4Hz.avi,guitar45_oneeighty_4Hz.wav,guitar,2,4.28443190000007,1,27,179,185,112,146,2,6,4,5.460082925,NaN,3560.9052563,2,NaN,NaN,NaN
27,11,7,AsyncTheta,189,1051_4Hz.avi,ep14_oneeighty_4Hz.wav,ep,1,7.55661220000002,0,27,117,177,189,132,3,10,1,5.460082925,NaN,3567.9219473,2,NaN,NaN,NaN
27,12,7,AsyncTheta,118,1020_4Hz.avi,willow22_oneeighty_4Hz.wav,willow,2,6.82484049999994,0,27,118,178,167,120,1,4,4,5.460082925,NaN,3577.68869,2,NaN,NaN,NaN
27,13,7,AsyncTheta,132,1356_4Hz.avi,ep30_oneeighty_4Hz.wav,ep,1,5.51091170000018,0,27,177,132,189,117,2,9,3,5.460082925,NaN,3587.7053458,2,NaN,NaN,NaN
27,14,7,AsyncTheta,112,1388_4Hz.avi,guitar39_oneeighty_4Hz.wav,guitar,4,6.42047649999995,1,27,185,179,146,112,4,16,4,5.460082925,NaN,3595.0053967,2,NaN,NaN,NaN
27,15,7,AsyncTheta,177,1283_4Hz.avi,ep38_oneeighty_4Hz.wav,ep,2,5.46660530000008,0,27,177,132,189,117,1,15,3,5.460082925,NaN,3604.7554015,2,NaN,NaN,NaN
27,16,7,AsyncTheta,117,1144_4Hz.avi,ep39_oneeighty_4Hz.wav,ep,1,3.55129580000039,0,27,177,132,189,117,4,13,4,5.460082925,NaN,3613.3387485,2,NaN,NaN,NaN
27,1,8,SyncTheta,22,1212_4Hz.avi,willow20_zero_4Hz.wav,willow,1,7.84014070000012,1,27,22,32,108,27,1,7,3,5.30735993333333,NaN,3785.0560218,2,NaN,NaN,NaN
27,2,8,SyncTheta,51,1331_4Hz.avi,synth47_zero_4Hz.wav,synth,4,6.79413520000026,1,27,35,50,109,51,4,13,3,5.30735993333333,NaN,3794.9226897,2,NaN,NaN,NaN
27,3,8,SyncTheta,50,1049_4Hz.avi,synth43_zero_4Hz.wav,synth,3,4.99314569999979,1,27,51,35,50,109,3,4,4,5.30735993333333,NaN,3805.0060631,2,NaN,NaN,NaN
27,4,8,SyncTheta,7,1017_4Hz.avi,guitar47_zero_4Hz.wav,guitar,2,6.91413789999979,0,27,7,93,46,15,1,8,2,5.30735993333333,NaN,3811.6228028,2,NaN,NaN,NaN
27,5,8,SyncTheta,35,1039_4Hz.avi,synth5_zero_4Hz.wav,synth,4,13.4345596999997,0,27,109,50,35,51,3,12,2,5.30735993333333,NaN,3820.6394684,2,NaN,NaN,NaN
27,6,8,SyncTheta,93,1046_4Hz.avi,guitar18_zero_4Hz.wav,guitar,1,4.17041479999989,1,27,93,15,7,46,1,2,2,5.30735993333333,NaN,3836.6561661,2,NaN,NaN,NaN
27,7,8,SyncTheta,109,1299_4Hz.avi,synth18_zero_4Hz.wav,synth,4,11.3992429999998,0,27,50,109,35,51,2,16,5,5.30735993333333,NaN,3843.5228864,2,NaN,NaN,NaN
27,8,8,SyncTheta,108,1415_4Hz.avi,willow3_zero_4Hz.wav,willow,4,5.18445770000017,1,27,27,22,32,108,4,14,2,5.30735993333333,NaN,3857.5229256,2,NaN,NaN,NaN
27,9,8,SyncTheta,27,1202_4Hz.avi,willow16_zero_4Hz.wav,willow,2,8.63307729999997,0,27,32,22,27,108,3,3,2,5.30735993333333,NaN,3864.9896428,2,NaN,NaN,NaN
27,10,8,SyncTheta,46,1210_4Hz.avi,guitar48_zero_4Hz.wav,guitar,3,4.74277990000019,1,27,7,15,46,93,3,5,4,5.30735993333333,NaN,3876.9396702,2,NaN,NaN,NaN
27,11,8,SyncTheta,24,1217_4Hz.avi,ep44_zero_4Hz.wav,ep,2,5.8891308999996,0,27,16,106,24,25,3,6,3,5.30735993333333,NaN,3884.4897027,2,NaN,NaN,NaN
27,12,8,SyncTheta,32,1360_4Hz.avi,willow10_zero_4Hz.wav,willow,4,8.11040120000007,0,27,22,32,108,27,2,10,2,5.30735993333333,NaN,3892.37305,2,NaN,NaN,NaN
27,13,8,SyncTheta,16,1442_4Hz.avi,ep34_zero_4Hz.wav,ep,4,7.8739072000003,0,27,24,16,25,106,2,1,3,5.30735993333333,NaN,3903.1897805,2,NaN,NaN,NaN
27,14,8,SyncTheta,15,1422_4Hz.avi,guitar37_zero_4Hz.wav,guitar,1,7.4886220000003,1,27,15,46,7,93,1,15,3,5.30735993333333,NaN,3912.9398161,2,NaN,NaN,NaN
27,15,8,SyncTheta,106,1113_4Hz.avi,ep29_zero_4Hz.wav,ep,1,6.64158619999989,1,27,106,16,24,25,1,11,4,5.30735993333333,NaN,3922.7898485,2,NaN,NaN,NaN
27,16,8,SyncTheta,25,1094_4Hz.avi,ep15_zero_4Hz.wav,ep,1,3.82753609999963,1,27,25,24,106,16,1,9,5,5.30735993333333,NaN,3931.6231624,2,NaN,NaN,NaN
27,1,9,SyncTheta,48,1021_4Hz.avi,willow12_zero_4Hz.wav,willow,1,11.5279299999993,1,27,48,92,55,37,1,9,3,5.54594038,21.3388271116667,4222.7740934,3,NaN,NaN,NaN
27,2,9,SyncTheta,61,1207_4Hz.avi,synth46_zero_4Hz.wav,synth,3,7.77815769999961,1,27,70,54,61,95,3,8,3,5.54594038,21.3388271116667,4236.5074046,3,NaN,NaN,NaN
27,3,9,SyncTheta,70,1093_4Hz.avi,synth6_zero_4Hz.wav,synth,1,3.95709170000009,0,27,54,95,70,61,3,3,4,5.54594038,21.3388271116667,4246.8741039,3,NaN,NaN,NaN
27,4,9,SyncTheta,84,1294_4Hz.avi,guitar6_zero_4Hz.wav,guitar,4,6.99981470000057,1,27,59,53,67,84,4,10,2,5.54594038,21.3388271116667,4252.4908546,3,NaN,NaN,NaN
27,5,9,SyncTheta,54,1181_4Hz.avi,synth12_zero_4Hz.wav,synth,3,5.22711410000011,0,27,70,54,95,61,2,6,5,5.54594038,21.3388271116667,4261.5074856,3,NaN,NaN,NaN
27,6,9,SyncTheta,67,1310_4Hz.avi,guitar21_zero_4Hz.wav,guitar,2,6.27250670000012,0,27,67,59,53,84,1,4,2,5.54594038,21.3388271116667,4268.9075206,3,NaN,NaN,NaN
27,7,9,SyncTheta,95,1359_4Hz.avi,synth33_zero_4Hz.wav,synth,1,9.16958960000011,0,27,70,61,54,95,4,14,4,5.54594038,21.3388271116667,4277.657542,3,NaN,NaN,NaN
27,8,9,SyncTheta,37,1237_4Hz.avi,willow15_zero_4Hz.wav,willow,1,3.87917790000029,1,27,37,55,48,92,1,12,4,5.54594038,21.3388271116667,4289.6075771,3,NaN,NaN,NaN
27,9,9,SyncTheta,55,1044_4Hz.avi,willow4_zero_4Hz.wav,willow,3,11.5452159999995,0,27,55,37,92,48,1,1,2,5.54594038,21.3388271116667,4295.8075992,3,NaN,NaN,NaN
27,10,9,SyncTheta,53,1197_4Hz.avi,guitar46_zero_4Hz.wav,guitar,4,3.95498700000007,1,27,67,59,84,53,4,7,4,5.54594038,21.3388271116667,4309.5743653,3,NaN,NaN,NaN
27,11,9,SyncTheta,26,1190_4Hz.avi,ep7_zero_4Hz.wav,ep,2,7.53962259999935,1,27,65,26,41,99,2,5,4,5.54594038,21.3388271116667,4315.441023,3,NaN,NaN,NaN
27,12,9,SyncTheta,92,1030_4Hz.avi,willow23_zero_4Hz.wav,willow,4,6.90961880000032,0,27,48,92,37,55,2,11,2,5.54594038,21.3388271116667,4325.5243898,3,NaN,NaN,NaN
27,13,9,SyncTheta,99,1173_4Hz.avi,ep6_zero_4Hz.wav,ep,1,4.41864429999987,1,27,99,41,26,65,1,2,4,5.54594038,21.3388271116667,4334.9910796,3,NaN,NaN,NaN
27,14,9,SyncTheta,59,1346_4Hz.avi,guitar33_zero_4Hz.wav,guitar,2,3.45893539999997,0,27,59,67,53,84,1,13,2,5.54594038,21.3388271116667,4342.5744525,3,NaN,NaN,NaN
27,15,9,SyncTheta,41,1132_4Hz.avi,ep10_zero_4Hz.wav,ep,3,5.07296909999968,1,27,99,65,41,26,3,16,3,5.54594038,21.3388271116667,4347.7244686,3,NaN,NaN,NaN
27,16,9,SyncTheta,65,1013_4Hz.avi,ep22_zero_4Hz.wav,ep,2,4.82390250000026,0,27,41,26,65,99,3,15,5,5.54594038,21.3388271116667,4355.9745225,3,NaN,NaN,NaN
27,1,10,AsyncTheta,153,1157_4Hz.avi,willow1_oneeighty_4Hz.wav,willow,3,4.53902780000044,1,27,149,171,153,119,3,13,4,4.85741166666667,21.3388271116667,4530.4417623,3,NaN,NaN,NaN
27,2,10,AsyncTheta,135,1154_4Hz.avi,synth38_oneeighty_4Hz.wav,synth,2,6.20124479999959,1,27,129,135,125,184,2,12,5,4.85741166666667,21.3388271116667,4537.4084475,3,NaN,NaN,NaN
27,3,10,AsyncTheta,184,1052_4Hz.avi,synth40_oneeighty_4Hz.wav,synth,4,6.56332610000027,0,27,135,129,184,125,3,1,2,4.85741166666667,21.3388271116667,4546.4418393,3,NaN,NaN,NaN
27,4,10,AsyncTheta,115,1370_4Hz.avi,guitar9_oneeighty_4Hz.wav,guitar,1,5.22272659999999,1,27,115,168,161,183,1,6,3,4.85741166666667,21.3388271116667,4554.5751772,3,NaN,NaN,NaN
27,5,10,AsyncTheta,129,1286_4Hz.avi,synth30_oneeighty_4Hz.wav,synth,4,5.35899609999979,1,27,125,184,135,129,4,10,1,4.85741166666667,21.3388271116667,4563.075176,3,NaN,NaN,NaN
27,6,10,AsyncTheta,168,1204_4Hz.avi,guitar36_oneeighty_4Hz.wav,guitar,4,7.22244969999974,1,27,161,115,183,168,4,3,3,4.85741166666667,21.3388271116667,4569.941901,3,NaN,NaN,NaN
27,7,10,AsyncTheta,125,1050_4Hz.avi,synth36_oneeighty_4Hz.wav,synth,2,4.7107673999999,1,27,129,125,135,184,2,15,3,4.85741166666667,21.3388271116667,4579.3419015,3,NaN,NaN,NaN
27,8,10,AsyncTheta,171,1280_4Hz.avi,willow19_oneeighty_4Hz.wav,willow,1,6.12551170000006,1,27,171,149,153,119,1,16,5,4.85741166666667,21.3388271116667,4585.80864,3,NaN,NaN,NaN
27,9,10,AsyncTheta,119,1189_4Hz.avi,willow11_oneeighty_4Hz.wav,willow,3,4.82031129999996,1,27,149,153,119,171,3,4,2,4.85741166666667,21.3388271116667,4595.225314,3,NaN,NaN,NaN
27,10,10,AsyncTheta,183,1374_4Hz.avi,guitar16_oneeighty_4Hz.wav,guitar,1,3.90176659999997,0,27,161,115,183,168,3,5,3,4.85741166666667,21.3388271116667,4602.508707,3,NaN,NaN,NaN
27,11,10,AsyncTheta,144,1255_4Hz.avi,ep28_oneeighty_4Hz.wav,ep,3,5.56296770000063,1,27,123,180,144,166,3,7,4,4.85741166666667,21.3388271116667,4608.8586903,3,NaN,NaN,NaN
27,12,10,AsyncTheta,149,1200_4Hz.avi,willow8_oneeighty_4Hz.wav,willow,1,6.44062269999995,1,27,149,171,119,153,1,14,4,4.85741166666667,21.3388271116667,4615.958747,3,NaN,NaN,NaN
27,13,10,AsyncTheta,123,1067_4Hz.avi,ep37_oneeighty_4Hz.wav,ep,4,5.07731039999999,0,27,180,123,144,166,2,2,4,4.85741166666667,21.3388271116667,4624.6253897,3,NaN,NaN,NaN
27,14,10,AsyncTheta,161,1433_4Hz.avi,guitar2_oneeighty_4Hz.wav,guitar,4,5.06757050000033,1,27,183,168,115,161,4,8,4,4.85741166666667,21.3388271116667,4631.2587389,3,NaN,NaN,NaN
27,15,10,AsyncTheta,180,1006_4Hz.avi,ep4_oneeighty_4Hz.wav,ep,3,5.85429070000009,0,27,166,144,123,180,4,11,3,4.85741166666667,21.3388271116667,4639.4421529,3,NaN,NaN,NaN
27,16,10,AsyncTheta,166,1227_4Hz.avi,ep5_oneeighty_4Hz.wav,ep,4,4.73033390000001,0,27,144,166,123,180,2,9,2,4.85741166666667,21.3388271116667,4647.6421323,3,NaN,NaN,NaN
27,1,11,NoFlicker,188,1036_half_amp.avi,orch26_half_amp.wav,orch,1,10.1060005999998,1,27,188,192,174,145,1,10,5,5.09549631,21.3388271116667,4829.1927843,3,NaN,NaN,NaN
27,2,11,NoFlicker,191,1314_half_amp.avi,dar19_half_amp.wav,dar,4,6.36438080000062,1,27,162,136,187,191,4,8,3,5.09549631,21.3388271116667,4841.9094681,3,NaN,NaN,NaN
27,3,11,NoFlicker,136,1175_half_amp.avi,dar4_half_amp.wav,dar,3,4.32679250000001,1,27,187,162,136,191,3,1,5,5.09549631,21.3388271116667,4850.726183,3,NaN,NaN,NaN
27,4,11,NoFlicker,181,1168_half_amp.avi,choir1_half_amp.wav,choir,3,4.78787800000009,1,27,124,182,181,160,3,9,4,5.09549631,21.3388271116667,4857.2428497,3,NaN,NaN,NaN
27,5,11,NoFlicker,187,1164_half_amp.avi,dar12_half_amp.wav,dar,1,2.92815069999961,1,27,187,136,162,191,1,2,5,5.09549631,21.3388271116667,4864.9596012,3,NaN,NaN,NaN
27,6,11,NoFlicker,182,1277_half_amp.avi,choir39_half_amp.wav,choir,1,4.34276969999974,0,27,160,182,124,181,2,4,2,5.09549631,21.3388271116667,4870.1929188,3,NaN,NaN,NaN
27,7,11,NoFlicker,162,1358_half_amp.avi,dar7_half_amp.wav,dar,2,4.02643369999987,1,27,136,162,191,187,2,15,3,5.09549631,21.3388271116667,4876.8762723,3,NaN,NaN,NaN
27,8,11,NoFlicker,192,1231_half_amp.avi,orch32_half_amp.wav,orch,3,7.04270810000071,1,27,145,174,192,188,3,16,2,5.09549631,21.3388271116667,4882.4595917,3,NaN,NaN,NaN
27,9,11,NoFlicker,174,1119_half_amp.avi,orch45_half_amp.wav,orch,1,5.81626520000009,1,27,174,145,192,188,1,6,4,5.09549631,21.3388271116667,4892.4096586,3,NaN,NaN,NaN
27,10,11,NoFlicker,160,1421_half_amp.avi,choir13_half_amp.wav,choir,4,6.99290329999985,1,27,181,182,124,160,4,7,2,5.09549631,21.3388271116667,4900.4763307,3,NaN,NaN,NaN
27,11,11,NoFlicker,190,1427_half_amp.avi,acoustic46_half_amp.wav,acoustic,2,6.09137329999976,0,27,113,175,169,190,4,5,2,5.09549631,21.3388271116667,4910.7930588,3,NaN,NaN,NaN
27,12,11,NoFlicker,145,1352_half_amp.avi,orch39_half_amp.wav,orch,1,5.81139690000055,1,27,145,188,174,192,1,12,2,5.09549631,21.3388271116667,4919.3263909,3,NaN,NaN,NaN
27,13,11,NoFlicker,113,1037_half_amp.avi,acoustic23_half_amp.wav,acoustic,2,4.83118479999939,1,27,190,113,175,169,2,3,5,5.09549631,21.3388271116667,4927.2597739,3,NaN,NaN,NaN
27,14,11,NoFlicker,124,1183_half_amp.avi,choir24_half_amp.wav,choir,4,5.46843730000001,1,27,181,182,160,124,4,13,1,5.09549631,21.3388271116667,4934.3764674,3,NaN,NaN,NaN
27,15,11,NoFlicker,169,1083_half_amp.avi,acoustic43_half_amp.wav,acoustic,2,5.74947010000051,0,27,175,190,113,169,4,14,2,5.09549631,21.3388271116667,4942.2764812,3,NaN,NaN,NaN
27,16,11,NoFlicker,175,1103_half_amp.avi,acoustic10_half_amp.wav,acoustic,4,6.84965359999933,0,27,190,169,175,113,3,11,1,5.09549631,21.3388271116667,4951.3765418,3,NaN,NaN,NaN
27,1,12,SyncDelta,91,1340_1.7Hz.avi,orch46_zero_1.7Hz.wav,orch,1,6.71291340000062,0,27,28,91,17,36,2,9,3,4.843843425,21.3388271116667,5128.4271283,3,NaN,NaN,NaN
27,2,12,SyncDelta,14,1416_1.7Hz.avi,dar1_zero_1.7Hz.wav,dar,2,4.67508579999958,0,27,2,34,64,14,4,12,3,4.843843425,21.3388271116667,5137.2604681,3,NaN,NaN,NaN
27,3,12,SyncDelta,34,1319_1.7Hz.avi,dar22_zero_1.7Hz.wav,dar,2,6.50689390000025,0,27,34,64,2,14,1,1,4,4.843843425,21.3388271116667,5144.1771539,3,NaN,NaN,NaN
27,4,12,SyncDelta,10,1179_1.7Hz.avi,choir4_zero_1.7Hz.wav,choir,3,5.4386714000002,0,27,11,19,69,10,4,8,3,4.843843425,21.3388271116667,5153.5772169,3,NaN,NaN,NaN
27,5,12,SyncDelta,2,1431_1.7Hz.avi,dar24_zero_1.7Hz.wav,dar,4,5.48705820000032,0,27,14,64,2,34,3,4,4,4.843843425,21.3388271116667,5161.1939351,3,NaN,NaN,NaN
27,6,12,SyncDelta,19,1247_1.7Hz.avi,choir38_zero_1.7Hz.wav,choir,3,2.07430149999982,1,27,69,10,19,11,3,3,5,4.843843425,21.3388271116667,5169.1272626,3,NaN,NaN,NaN
27,7,12,SyncDelta,64,1098_1.7Hz.avi,dar11_zero_1.7Hz.wav,dar,1,4.92146580000008,1,27,64,2,34,14,1,16,4,4.843843425,21.3388271116667,5174.6106496,3,NaN,NaN,NaN
27,8,12,SyncDelta,17,1162_1.7Hz.avi,orch1_zero_1.7Hz.wav,orch,1,5.88455320000048,0,27,36,91,28,17,4,14,5,4.843843425,21.3388271116667,5181.2439478,3,NaN,NaN,NaN
27,9,12,SyncDelta,28,1148_1.7Hz.avi,orch19_zero_1.7Hz.wav,orch,2,4.46807100000024,0,27,17,36,91,28,4,6,2,4.843843425,21.3388271116667,5189.2606932,3,NaN,NaN,NaN
27,10,12,SyncDelta,11,1448_1.7Hz.avi,choir36_zero_1.7Hz.wav,choir,1,6.98907630000031,1,27,11,10,69,19,1,7,2,4.843843425,21.3388271116667,5196.8940801,3,NaN,NaN,NaN
27,11,12,SyncDelta,20,1236_1.7Hz.avi,acoustic25_zero_1.7Hz.wav,acoustic,4,7.40120060000027,1,27,4,58,1,20,4,5,3,4.843843425,21.3388271116667,5205.4773937,3,NaN,NaN,NaN
27,12,12,SyncDelta,36,1284_1.7Hz.avi,orch29_zero_1.7Hz.wav,orch,2,5.89266950000001,0,27,91,17,36,28,3,10,2,4.843843425,21.3388271116667,5215.0107567,3,NaN,NaN,NaN
27,13,12,SyncDelta,1,1064_1.7Hz.avi,acoustic12_zero_1.7Hz.wav,acoustic,1,5.23519589999978,0,27,58,4,1,20,3,2,2,4.843843425,21.3388271116667,5222.8274465,3,NaN,NaN,NaN
27,14,12,SyncDelta,69,1216_1.7Hz.avi,choir32_zero_1.7Hz.wav,choir,4,5.40188060000037,0,27,69,11,19,10,1,13,4,4.843843425,21.3388271116667,5229.5941415,3,NaN,NaN,NaN
27,15,12,SyncDelta,4,1167_1.7Hz.avi,acoustic37_zero_1.7Hz.wav,acoustic,4,6.78569160000006,0,27,1,20,4,58,3,15,5,4.843843425,21.3388271116667,5237.0774716,3,NaN,NaN,NaN
27,16,12,SyncDelta,58,1323_1.7Hz.avi,acoustic29_zero_1.7Hz.wav,acoustic,4,2.98569289999978,0,27,58,20,4,1,1,11,4,4.843843425,21.3388271116667,5245.9775307,3,NaN,NaN,NaN
