ParticipantID,TrialNumber,BlockNumber,Condition,ClipID,VideoFile,SoundFile,SoundCategory,Response,RT,Accuracy,ConditionID,Frame1,Frame2,Frame3,Frame4,CorrectKey,EncodingPosition,Rating,BlockDuration,ExperimentDuration,MemoryTestOnset,RunNumber,Age,Handedness,Sex
1,1,1,NoFlicker,168,1204_half_amp.avi,guitar36_half_amp.wav,guitar,2,7.10051309999972,1,1,179,168,112,151,2,15,3,6.10926495333333,NaN,3813.277997,1,NaN,NaN,NaN
1,2,1,NoFlicker,166,1227_half_amp.avi,ep5_half_amp.wav,ep,4,6.57257569999956,0,1,166,138,117,177,1,8,4,6.10926495333333,NaN,3821.9780217,1,NaN,NaN,NaN
1,3,1,NoFlicker,112,1388_half_amp.avi,guitar39_half_amp.wav,guitar,3,6.0331798000002,1,1,168,151,112,179,3,13,2,6.10926495333333,NaN,3831.3113829,1,NaN,NaN,NaN
1,4,1,NoFlicker,167,1177_half_amp.avi,willow24_half_amp.wav,willow,4,5.17054929999995,0,1,153,167,130,118,2,4,1,6.10926495333333,NaN,3838.9614379,1,NaN,NaN,NaN
1,5,1,NoFlicker,135,1154_half_amp.avi,synth38_half_amp.wav,synth,4,6.22866109999995,0,1,135,111,128,163,1,6,3,6.10926495333333,NaN,3847.2780787,1,NaN,NaN,NaN
1,6,1,NoFlicker,118,1020_half_amp.avi,willow22_half_amp.wav,willow,1,6.90961169999991,0,1,153,167,130,118,4,3,1,6.10926495333333,NaN,3856.3114265,1,NaN,NaN,NaN
1,7,1,NoFlicker,117,1144_half_amp.avi,ep39_half_amp.wav,ep,4,6.11725380000007,0,1,117,166,177,138,1,9,3,6.10926495333333,NaN,3866.5448594,1,NaN,NaN,NaN
1,8,1,NoFlicker,128,1269_half_amp.avi,synth14_half_amp.wav,synth,3,8.34025639999982,0,1,111,128,135,163,2,12,3,6.10926495333333,NaN,3874.6448583,1,NaN,NaN,NaN
1,9,1,NoFlicker,151,1259_half_amp.avi,guitar43_half_amp.wav,guitar,2,9.22637579999991,1,1,112,151,168,179,2,5,2,6.10926495333333,NaN,3884.5281956,1,NaN,NaN,NaN
1,10,1,NoFlicker,177,1283_half_amp.avi,ep38_half_amp.wav,ep,1,6.11776359999976,0,1,166,177,117,138,2,2,4,6.10926495333333,NaN,3896.8949332,1,NaN,NaN,NaN
1,11,1,NoFlicker,111,1390_half_amp.avi,synth3_half_amp.wav,synth,1,7.50011020000011,0,1,163,135,111,128,3,11,4,6.10926495333333,NaN,3904.4615977,1,NaN,NaN,NaN
1,12,1,NoFlicker,138,1149_half_amp.avi,ep2_half_amp.wav,ep,2,5.56797419999975,1,1,166,138,177,117,2,7,3,6.10926495333333,NaN,3914.9283356,1,NaN,NaN,NaN
1,13,1,NoFlicker,130,1081_half_amp.avi,willow5_half_amp.wav,willow,2,6.63956899999994,1,1,118,130,153,167,2,1,3,6.10926495333333,NaN,3923.0283231,1,NaN,NaN,NaN
1,14,1,NoFlicker,163,1441_half_amp.avi,synth27_half_amp.wav,synth,4,5.02786590000005,0,1,163,111,135,128,1,14,1,6.10926495333333,NaN,3931.0950447,1,NaN,NaN,NaN
1,15,1,NoFlicker,179,1186_half_amp.avi,guitar30_half_amp.wav,guitar,2,5.47393139999986,0,1,179,112,168,151,1,16,3,6.10926495333333,NaN,3937.9283719,1,NaN,NaN,NaN
1,16,1,NoFlicker,153,1157_half_amp.avi,willow1_half_amp.wav,willow,3,5.31111220000003,0,1,118,167,130,153,4,10,5,6.10926495333333,NaN,3945.2117632,1,NaN,NaN,NaN
1,1,2,SyncTheta,13,1201_4Hz.avi,choir7_zero_4Hz.wav,choir,3,6.61509949999981,1,1,10,68,13,52,3,10,3,5.75656962,NaN,4163.8958267,1,NaN,NaN,NaN
1,2,2,SyncTheta,9,1054_4Hz.avi,acoustic44_zero_4Hz.wav,acoustic,1,7.02890779999962,1,1,9,1,47,23,1,11,3,5.75656962,NaN,4172.0125174,1,NaN,NaN,NaN
1,3,2,SyncTheta,52,1387_4Hz.avi,choir2_zero_4Hz.wav,choir,3,6.38825399999951,0,1,52,68,13,10,1,7,2,5.75656962,NaN,4182.0458568,1,NaN,NaN,NaN
1,4,2,SyncTheta,85,1383_4Hz.avi,orch23_zero_4Hz.wav,orch,2,6.25697440000022,0,1,85,33,17,57,1,9,3,5.75656962,NaN,4191.345921,1,NaN,NaN,NaN
1,5,2,SyncTheta,2,1431_4Hz.avi,dar24_zero_4Hz.wav,dar,1,7.49217580000004,1,1,2,31,43,56,1,4,3,5.75656962,NaN,4199.7626133,1,NaN,NaN,NaN
1,6,2,SyncTheta,57,1309_4Hz.avi,orch7_zero_4Hz.wav,orch,4,6.90487260000009,0,1,33,57,85,17,2,6,4,5.75656962,NaN,4208.6793357,1,NaN,NaN,NaN
1,7,2,SyncTheta,47,1292_4Hz.avi,acoustic28_zero_4Hz.wav,acoustic,3,4.89369929999975,0,1,47,9,23,1,1,16,1,5.75656962,NaN,4217.9126543,1,NaN,NaN,NaN
1,8,2,SyncTheta,56,1063_4Hz.avi,dar16_zero_4Hz.wav,dar,1,6.16644459999952,0,1,31,2,43,56,4,13,2,5.75656962,NaN,4225.0960426,1,NaN,NaN,NaN
1,9,2,SyncTheta,68,1023_4Hz.avi,choir3_zero_4Hz.wav,choir,1,8.07266630000049,1,1,68,52,13,10,1,5,1,5.75656962,NaN,4233.5126965,1,NaN,NaN,NaN
1,10,2,SyncTheta,23,1330_4Hz.avi,acoustic47_zero_4Hz.wav,acoustic,2,8.48321809999925,0,1,47,1,23,9,3,2,4,5.75656962,NaN,4243.2627576,1,NaN,NaN,NaN
1,11,2,SyncTheta,31,1404_4Hz.avi,dar8_zero_4Hz.wav,dar,3,3.56215630000042,1,1,56,43,31,2,3,8,5,5.75656962,NaN,4253.9461009,1,NaN,NaN,NaN
1,12,2,SyncTheta,1,1064_4Hz.avi,acoustic12_zero_4Hz.wav,acoustic,2,5.82143439999982,0,1,23,47,1,9,3,3,2,5.75656962,NaN,4259.5128143,1,NaN,NaN,NaN
1,13,2,SyncTheta,33,1136_4Hz.avi,orch38_zero_4Hz.wav,orch,3,6.07863999999972,0,1,17,57,85,33,4,1,4,5.75656962,NaN,4268.2961745,1,NaN,NaN,NaN
1,14,2,SyncTheta,43,1141_4Hz.avi,dar13_zero_4Hz.wav,dar,2,3.99101369999971,1,1,2,43,56,31,2,14,5,5.75656962,NaN,4275.8462311,1,NaN,NaN,NaN
1,15,2,SyncTheta,10,1179_4Hz.avi,choir4_zero_4Hz.wav,choir,3,5.58406970000033,1,1,13,52,10,68,3,15,5,5.75656962,NaN,4282.8628886,1,NaN,NaN,NaN
1,16,2,SyncTheta,17,1162_4Hz.avi,orch1_zero_4Hz.wav,orch,1,5.84678469999926,1,1,17,57,85,33,1,12,2,5.75656962,NaN,4290.1629178,1,NaN,NaN,NaN
1,1,3,SyncDelta,84,1294_1.7Hz.avi,guitar6_zero_1.7Hz.wav,guitar,1,7.83366959999967,0,1,3,84,46,67,2,10,1,5.21763532666667,NaN,4457.9301536,1,NaN,NaN,NaN
1,2,3,SyncDelta,65,1013_1.7Hz.avi,ep22_zero_1.7Hz.wav,ep,3,3.85073960000045,0,1,6,99,25,65,4,12,1,5.21763532666667,NaN,4468.46354,1,NaN,NaN,NaN
1,3,3,SyncDelta,3,1156_1.7Hz.avi,guitar31_zero_1.7Hz.wav,guitar,1,7.26844619999974,0,1,84,3,67,46,2,9,2,5.21763532666667,NaN,4474.9968937,1,NaN,NaN,NaN
1,4,3,SyncDelta,32,1360_1.7Hz.avi,willow10_zero_1.7Hz.wav,willow,3,8.73370979999982,0,1,92,32,55,18,2,7,1,5.21763532666667,NaN,4485.2135387,1,NaN,NaN,NaN
1,5,3,SyncDelta,70,1093_1.7Hz.avi,synth6_zero_1.7Hz.wav,synth,3,9.02244780000001,0,1,51,70,8,95,2,1,2,5.21763532666667,NaN,4496.3302701,1,NaN,NaN,NaN
1,6,3,SyncDelta,18,1101_1.7Hz.avi,willow13_zero_1.7Hz.wav,willow,2,3.95656370000052,0,1,55,32,18,92,3,5,1,5.21763532666667,NaN,4507.5302845,1,NaN,NaN,NaN
1,7,3,SyncDelta,6,1007_1.7Hz.avi,ep8_zero_1.7Hz.wav,ep,4,5.79365429999962,0,1,25,65,6,99,3,16,3,5.21763532666667,NaN,4513.0969965,1,NaN,NaN,NaN
1,8,3,SyncDelta,95,1359_1.7Hz.avi,synth33_zero_1.7Hz.wav,synth,1,11.7685405000002,0,1,70,8,51,95,4,13,3,5.21763532666667,NaN,4521.0803842,1,NaN,NaN,NaN
1,9,3,SyncDelta,67,1310_1.7Hz.avi,guitar21_zero_1.7Hz.wav,guitar,3,6.94002799999998,0,1,84,46,3,67,4,6,3,5.21763532666667,NaN,4535.7137389,1,NaN,NaN,NaN
1,10,3,SyncDelta,25,1094_1.7Hz.avi,ep15_zero_1.7Hz.wav,ep,2,5.00028419999944,0,1,99,6,25,65,3,2,4,5.21763532666667,NaN,4544.9804075,1,NaN,NaN,NaN
1,11,3,SyncDelta,51,1331_1.7Hz.avi,synth47_zero_1.7Hz.wav,synth,3,6.32970560000012,0,1,95,8,70,51,4,8,2,5.21763532666667,NaN,4552.8971384,1,NaN,NaN,NaN
1,12,3,SyncDelta,99,1173_1.7Hz.avi,ep6_zero_1.7Hz.wav,ep,3,4.39654979999978,0,1,99,65,25,6,1,4,5,5.21763532666667,NaN,4561.3638216,1,NaN,NaN,NaN
1,13,3,SyncDelta,55,1044_1.7Hz.avi,willow4_zero_1.7Hz.wav,willow,4,8.58323430000019,0,1,92,55,18,32,2,3,3,5.21763532666667,NaN,4568.9138501,1,NaN,NaN,NaN
1,14,3,SyncDelta,8,1252_1.7Hz.avi,synth25_zero_1.7Hz.wav,synth,2,8.07816120000007,0,1,70,51,8,95,3,14,3,5.21763532666667,NaN,4580.1805538,1,NaN,NaN,NaN
1,15,3,SyncDelta,46,1210_1.7Hz.avi,guitar48_zero_1.7Hz.wav,guitar,4,5.14628689999972,0,1,67,46,84,3,2,11,1,5.21763532666667,NaN,4591.3306161,1,NaN,NaN,NaN
1,16,3,SyncDelta,92,1030_1.7Hz.avi,willow23_zero_1.7Hz.wav,willow,1,9.76829780000025,0,1,32,92,55,18,2,15,2,5.21763532666667,NaN,4599.3639285,1,NaN,NaN,NaN
1,1,4,AsyncTheta,160,1421_4Hz.avi,choir13_oneeighty_4Hz.wav,choir,3,5.76918479999949,0,1,160,76,97,124,1,10,2,4.96778477833333,NaN,4767.5145068,1,NaN,NaN,NaN
1,2,4,AsyncTheta,104,1111_4Hz.avi,acoustic31_oneeighty_4Hz.wav,acoustic,4,5.03130169999986,1,1,169,79,113,104,4,11,4,4.96778477833333,NaN,4775.7312075,1,NaN,NaN,NaN
1,3,4,AsyncTheta,97,1368_4Hz.avi,choir30_oneeighty_4Hz.wav,choir,2,6.28812509999989,1,1,160,97,124,76,2,9,4,4.96778477833333,NaN,4782.8812276,1,NaN,NaN,NaN
1,4,4,AsyncTheta,110,1443_4Hz.avi,orch3_oneeighty_4Hz.wav,orch,3,6.4361429999999,1,1,174,141,110,145,3,12,3,4.96778477833333,NaN,4791.8146268,1,NaN,NaN,NaN
1,5,4,AsyncTheta,136,1175_4Hz.avi,dar4_oneeighty_4Hz.wav,dar,1,6.99787699999979,1,1,136,162,82,116,1,2,5,4.96778477833333,NaN,4800.9146239,1,NaN,NaN,NaN
1,6,4,AsyncTheta,145,1352_4Hz.avi,orch39_oneeighty_4Hz.wav,orch,2,4.99906090000059,0,1,145,174,141,110,1,7,4,4.96778477833333,NaN,4810.2146581,1,NaN,NaN,NaN
1,7,4,AsyncTheta,79,1071_4Hz.avi,acoustic17_oneeighty_4Hz.wav,acoustic,3,8.11184720000074,1,1,113,169,79,104,3,13,4,4.96778477833333,NaN,4818.131374,1,NaN,NaN,NaN
1,8,4,AsyncTheta,162,1358_4Hz.avi,dar7_oneeighty_4Hz.wav,dar,1,4.14492950000022,1,1,162,116,136,82,1,8,5,4.96778477833333,NaN,4829.0814105,1,NaN,NaN,NaN
1,9,4,AsyncTheta,124,1183_4Hz.avi,choir24_oneeighty_4Hz.wav,choir,4,10.0129635000003,0,1,160,76,124,97,3,6,2,4.96778477833333,NaN,4835.2647618,1,NaN,NaN,NaN
1,10,4,AsyncTheta,113,1037_4Hz.avi,acoustic23_oneeighty_4Hz.wav,acoustic,2,4.57975979999992,1,1,79,113,169,104,2,1,5,4.96778477833333,NaN,4847.8647529,1,NaN,NaN,NaN
1,11,4,AsyncTheta,116,1420_4Hz.avi,dar18_oneeighty_4Hz.wav,dar,4,5.54303900000014,1,1,162,136,82,116,4,5,3,4.96778477833333,NaN,4855.1814691,1,NaN,NaN,NaN
1,12,4,AsyncTheta,169,1083_4Hz.avi,acoustic43_oneeighty_4Hz.wav,acoustic,3,5.93443139999999,0,1,113,104,79,169,4,3,3,4.96778477833333,NaN,4863.4314949,1,NaN,NaN,NaN
1,13,4,AsyncTheta,174,1119_4Hz.avi,orch45_oneeighty_4Hz.wav,orch,3,11.1619516999999,1,1,141,145,174,110,3,4,1,4.96778477833333,NaN,4872.1982052,1,NaN,NaN,NaN
1,14,4,AsyncTheta,82,1449_4Hz.avi,dar17_oneeighty_4Hz.wav,dar,1,5.6359708,1,1,82,116,136,162,1,14,3,4.96778477833333,NaN,4886.0482137,1,NaN,NaN,NaN
1,15,4,AsyncTheta,76,1293_4Hz.avi,choir23_oneeighty_4Hz.wav,choir,4,3.53784340000038,1,1,160,124,97,76,4,15,2,4.96778477833333,NaN,4893.5649594,1,NaN,NaN,NaN
1,16,4,AsyncTheta,141,1401_4Hz.avi,orch12_oneeighty_4Hz.wav,orch,1,8.08630139999968,1,1,141,174,145,110,1,16,3,4.96778477833333,NaN,4899.2316429,1,NaN,NaN,NaN
1,1,5,NoFlicker,183,1374_half_amp.avi,guitar16_half_amp.wav,guitar,4,7.78494140000021,0,1,115,161,183,170,3,14,2,5.67918124,NaN,5185.8824938,2,NaN,NaN,NaN
1,2,5,NoFlicker,173,1348_half_amp.avi,ep31_half_amp.wav,ep,2,4.78708730000017,0,1,173,123,144,180,1,11,2,5.67918124,NaN,5195.2491638,2,NaN,NaN,NaN
1,3,5,NoFlicker,161,1433_half_amp.avi,guitar2_half_amp.wav,guitar,3,4.63163420000001,0,1,161,115,170,183,1,10,4,5.67918124,NaN,5202.5158861,2,NaN,NaN,NaN
1,4,5,NoFlicker,119,1189_half_amp.avi,willow11_half_amp.wav,willow,3,3.5255932,1,1,156,149,119,171,3,8,4,5.67918124,NaN,5209.4658746,2,NaN,NaN,NaN
1,5,5,NoFlicker,125,1050_half_amp.avi,synth36_half_amp.wav,synth,3,6.14247049999994,0,1,129,184,140,125,4,4,2,5.67918124,NaN,5215.932615,2,NaN,NaN,NaN
1,6,5,NoFlicker,156,1060_half_amp.avi,willow7_half_amp.wav,willow,3,5.35938460000034,1,1,119,171,156,149,3,6,4,5.67918124,NaN,5223.5159478,2,NaN,NaN,NaN
1,7,5,NoFlicker,180,1006_half_amp.avi,ep4_half_amp.wav,ep,4,3.87571170000047,1,1,123,144,173,180,4,16,3,5.67918124,NaN,5231.9992819,2,NaN,NaN,NaN
1,8,5,NoFlicker,184,1052_half_amp.avi,synth40_half_amp.wav,synth,2,4.94122489999972,0,1,140,125,129,184,4,12,2,5.67918124,NaN,5237.8492978,2,NaN,NaN,NaN
1,9,5,NoFlicker,170,1062_half_amp.avi,guitar3_half_amp.wav,guitar,1,10.4793176000003,0,1,115,183,170,161,3,7,4,5.67918124,NaN,5246.0827141,2,NaN,NaN,NaN
1,10,5,NoFlicker,123,1067_half_amp.avi,ep37_half_amp.wav,ep,3,7.54946999999993,0,1,144,180,173,123,4,2,5,5.67918124,NaN,5258.2160848,2,NaN,NaN,NaN
1,11,5,NoFlicker,140,1270_half_amp.avi,synth17_half_amp.wav,synth,4,9.87943220000034,0,1,184,125,140,129,3,5,3,5.67918124,NaN,5267.3660807,2,NaN,NaN,NaN
1,12,5,NoFlicker,144,1255_half_amp.avi,ep28_half_amp.wav,ep,1,6.41984390000016,1,1,144,180,123,173,1,3,2,5.67918124,NaN,5279.4994378,2,NaN,NaN,NaN
1,13,5,NoFlicker,171,1280_half_amp.avi,willow19_half_amp.wav,willow,3,7.12540630000058,1,1,156,149,171,119,3,1,3,5.67918124,NaN,5287.6494611,2,NaN,NaN,NaN
1,14,5,NoFlicker,129,1286_half_amp.avi,synth30_half_amp.wav,synth,2,7.47492359999978,1,1,140,129,184,125,2,13,1,5.67918124,NaN,5296.2495299,2,NaN,NaN,NaN
1,15,5,NoFlicker,115,1370_half_amp.avi,guitar9_half_amp.wav,guitar,2,7.4722912999996,1,1,170,115,161,183,2,15,1,5.67918124,NaN,5306.099522,2,NaN,NaN,NaN
1,16,5,NoFlicker,149,1200_half_amp.avi,willow8_half_amp.wav,willow,4,6.20220169999993,1,1,119,171,156,149,4,9,4,5.67918124,NaN,5315.0829196,2,NaN,NaN,NaN
1,1,6,SyncDelta,90,1273_1.7Hz.avi,guitar23_zero_1.7Hz.wav,guitar,1,7.40802359999998,1,1,90,53,7,73,1,7,3,4.646675235,NaN,5483.7834737,2,NaN,NaN,NaN
1,2,6,SyncDelta,26,1190_1.7Hz.avi,ep7_zero_1.7Hz.wav,ep,1,5.7905297999996,0,1,101,26,16,86,2,15,4,4.646675235,NaN,5493.6168398,2,NaN,NaN,NaN
1,3,6,SyncDelta,7,1017_1.7Hz.avi,guitar47_zero_1.7Hz.wav,guitar,2,5.44604890000028,0,1,53,90,7,73,3,5,2,4.646675235,NaN,5501.4668647,2,NaN,NaN,NaN
1,4,6,SyncDelta,22,1212_1.7Hz.avi,willow20_zero_1.7Hz.wav,willow,1,4.6938070999995,0,1,66,22,94,37,2,10,3,4.646675235,NaN,5508.6002028,2,NaN,NaN,NaN
1,5,6,SyncDelta,54,1181_1.7Hz.avi,synth12_zero_1.7Hz.wav,synth,3,3.67648989999998,0,1,100,54,71,35,2,2,3,4.646675235,NaN,5516.4335576,2,NaN,NaN,NaN
1,6,6,SyncDelta,37,1237_1.7Hz.avi,willow15_zero_1.7Hz.wav,willow,4,5.30615680000028,0,1,22,66,37,94,3,6,2,4.646675235,NaN,5521.5169411,2,NaN,NaN,NaN
1,7,6,SyncDelta,86,1278_1.7Hz.avi,ep35_zero_1.7Hz.wav,ep,3,3.82489339999938,1,1,101,16,86,26,3,16,3,4.646675235,NaN,5529.5336076,2,NaN,NaN,NaN
1,8,6,SyncDelta,100,1107_1.7Hz.avi,synth23_zero_1.7Hz.wav,synth,1,4.7337376000005,0,1,71,35,54,100,4,11,1,4.646675235,NaN,5534.9336735,2,NaN,NaN,NaN
1,9,6,SyncDelta,73,1369_1.7Hz.avi,guitar19_zero_1.7Hz.wav,guitar,2,7.26869270000043,1,1,53,73,7,90,2,4,2,4.646675235,NaN,5541.8003124,2,NaN,NaN,NaN
1,10,6,SyncDelta,101,1295_1.7Hz.avi,ep40_zero_1.7Hz.wav,ep,3,5.41287140000077,1,1,16,26,101,86,3,1,3,4.646675235,NaN,5551.9170368,2,NaN,NaN,NaN
1,11,6,SyncDelta,35,1039_1.7Hz.avi,synth5_zero_1.7Hz.wav,synth,4,5.89968349999981,0,1,35,54,71,100,1,9,2,4.646675235,NaN,5559.0504036,2,NaN,NaN,NaN
1,12,6,SyncDelta,16,1442_1.7Hz.avi,ep34_zero_1.7Hz.wav,ep,4,4.14481410000008,1,1,86,101,26,16,4,8,4,4.646675235,NaN,5567.4504588,2,NaN,NaN,NaN
1,13,6,SyncDelta,94,1109_1.7Hz.avi,willow6_zero_1.7Hz.wav,willow,3,4.42543529999966,1,1,22,37,94,66,3,3,1,4.646675235,NaN,5573.8337793,2,NaN,NaN,NaN
1,14,6,SyncDelta,71,1076_1.7Hz.avi,synth21_zero_1.7Hz.wav,synth,2,4.83639289999974,0,1,35,100,54,71,4,13,1,4.646675235,NaN,5581.5171135,2,NaN,NaN,NaN
1,15,6,SyncDelta,53,1197_1.7Hz.avi,guitar46_zero_1.7Hz.wav,guitar,2,5.82976300000064,1,1,73,53,90,7,2,14,2,4.646675235,NaN,5587.8004862,2,NaN,NaN,NaN
1,16,6,SyncDelta,66,1215_1.7Hz.avi,willow18_zero_1.7Hz.wav,willow,1,4.06934139999976,1,1,66,22,94,37,1,12,2,4.646675235,NaN,5596.1005452,2,NaN,NaN,NaN
1,1,7,AsyncTheta,139,1192_4Hz.avi,choir5_oneeighty_4Hz.wav,choir,3,5.99027359999945,1,1,98,78,139,181,3,13,1,4.478685645,NaN,5752.284381,2,NaN,NaN,NaN
1,2,7,AsyncTheta,133,1341_4Hz.avi,acoustic14_oneeighty_4Hz.wav,acoustic,2,6.64282510000066,1,1,83,133,175,105,2,12,4,4.478685645,NaN,5761.3344302,2,NaN,NaN,NaN
1,3,7,AsyncTheta,98,1014_4Hz.avi,choir41_oneeighty_4Hz.wav,choir,4,6.80521069999941,0,1,78,98,139,181,2,8,3,4.478685645,NaN,5770.8677402,2,NaN,NaN,NaN
1,4,7,AsyncTheta,142,1155_4Hz.avi,orch9_oneeighty_4Hz.wav,orch,4,4.54764700000032,1,1,134,158,188,142,4,9,1,4.478685645,NaN,5779.1011633,2,NaN,NaN,NaN
1,5,7,AsyncTheta,147,1304_4Hz.avi,dar10_oneeighty_4Hz.wav,dar,1,6.04727359999924,0,1,187,122,147,103,3,4,2,4.478685645,NaN,5786.5844893,2,NaN,NaN,NaN
1,6,7,AsyncTheta,134,1026_4Hz.avi,orch16_oneeighty_4Hz.wav,orch,3,8.13477560000047,0,1,142,134,158,188,2,5,2,4.478685645,NaN,5795.1511788,2,NaN,NaN,NaN
1,7,7,AsyncTheta,175,1103_4Hz.avi,acoustic10_oneeighty_4Hz.wav,acoustic,4,3.74166820000028,0,1,83,133,175,105,3,14,3,4.478685645,NaN,5804.8012803,2,NaN,NaN,NaN
1,8,7,AsyncTheta,122,1289_4Hz.avi,dar3_oneeighty_4Hz.wav,dar,3,4.37478100000044,0,1,187,122,103,147,2,7,2,4.478685645,NaN,5811.2345858,2,NaN,NaN,NaN
1,9,7,AsyncTheta,181,1168_4Hz.avi,choir1_oneeighty_4Hz.wav,choir,3,3.6257671000003,1,1,78,98,181,139,3,3,4,4.478685645,NaN,5818.1512721,2,NaN,NaN,NaN
1,10,7,AsyncTheta,105,1003_4Hz.avi,acoustic6_oneeighty_4Hz.wav,acoustic,3,4.06548339999972,0,1,105,133,83,175,1,2,3,4.478685645,NaN,5823.1679599,2,NaN,NaN,NaN
1,11,7,AsyncTheta,187,1164_4Hz.avi,dar12_oneeighty_4Hz.wav,dar,4,3.48630499999945,1,1,147,122,103,187,4,6,1,4.478685645,NaN,5828.9679924,2,NaN,NaN,NaN
1,12,7,AsyncTheta,83,1139_4Hz.avi,acoustic27_oneeighty_4Hz.wav,acoustic,2,5.00527869999951,0,1,105,133,83,175,3,11,4,4.478685645,NaN,5834.901316,2,NaN,NaN,NaN
1,13,7,AsyncTheta,158,1206_4Hz.avi,orch6_oneeighty_4Hz.wav,orch,1,3.79796480000005,0,1,134,142,158,188,3,1,3,4.478685645,NaN,5843.1013432,2,NaN,NaN,NaN
1,14,7,AsyncTheta,103,1084_4Hz.avi,dar20_oneeighty_4Hz.wav,dar,4,5.56519839999964,0,1,187,103,147,122,2,16,3,4.478685645,NaN,5849.3513824,2,NaN,NaN,NaN
1,15,7,AsyncTheta,78,1301_4Hz.avi,choir11_oneeighty_4Hz.wav,choir,3,4.44546620000074,0,1,181,98,139,78,4,15,3,4.478685645,NaN,5857.9014204,2,NaN,NaN,NaN
1,16,7,AsyncTheta,188,1036_4Hz.avi,orch26_oneeighty_4Hz.wav,orch,1,5.23813440000049,0,1,134,142,188,158,3,10,4,4.478685645,NaN,5863.7514106,2,NaN,NaN,NaN
1,1,8,SyncTheta,19,1247_4Hz.avi,choir38_zero_4Hz.wav,choir,4,8.25158170000032,0,1,62,19,11,69,2,10,3,4.52679108,NaN,6022.9019228,2,NaN,NaN,NaN
1,2,8,SyncTheta,4,1167_4Hz.avi,acoustic37_zero_4Hz.wav,acoustic,3,5.76489840000067,1,1,58,20,4,39,3,5,4,4.52679108,NaN,6032.9019782,2,NaN,NaN,NaN
1,3,8,SyncTheta,11,1448_4Hz.avi,choir36_zero_4Hz.wav,choir,4,5.02081080000062,1,1,19,69,62,11,4,6,3,4.52679108,NaN,6040.0520073,2,NaN,NaN,NaN
1,4,8,SyncTheta,91,1340_4Hz.avi,orch46_zero_4Hz.wav,orch,2,6.71710059999987,1,1,28,91,74,36,2,14,1,4.52679108,NaN,6046.5020486,2,NaN,NaN,NaN
1,5,8,SyncTheta,14,1416_4Hz.avi,dar1_zero_4Hz.wav,dar,4,3.84400959999948,0,1,14,34,45,64,1,8,1,4.52679108,NaN,6055.4020866,2,NaN,NaN,NaN
1,6,8,SyncTheta,74,1337_4Hz.avi,orch24_zero_4Hz.wav,orch,2,4.24791310000001,0,1,74,36,91,28,1,12,2,4.52679108,NaN,6062.5854165,2,NaN,NaN,NaN
1,7,8,SyncTheta,39,1061_4Hz.avi,acoustic11_zero_4Hz.wav,acoustic,3,4.25012190000052,0,1,4,20,58,39,4,7,3,4.52679108,NaN,6068.7687387,2,NaN,NaN,NaN
1,8,8,SyncTheta,45,1203_4Hz.avi,dar2_zero_4Hz.wav,dar,4,4.61906650000037,0,1,64,14,45,34,3,11,3,4.52679108,NaN,6074.8354572,2,NaN,NaN,NaN
1,9,8,SyncTheta,62,1058_4Hz.avi,choir19_zero_4Hz.wav,choir,4,4.59694820000004,1,1,11,69,19,62,4,3,3,4.52679108,NaN,6081.9521421,2,NaN,NaN,NaN
1,10,8,SyncTheta,20,1236_4Hz.avi,acoustic25_zero_4Hz.wav,acoustic,2,4.58001559999957,0,1,39,58,20,4,3,1,4,4.52679108,NaN,6089.4355068,2,NaN,NaN,NaN
1,11,8,SyncTheta,34,1319_4Hz.avi,dar22_zero_4Hz.wav,dar,1,6.4001244000001,0,1,64,14,45,34,4,9,3,4.52679108,NaN,6096.0355326,2,NaN,NaN,NaN
1,12,8,SyncTheta,58,1323_4Hz.avi,acoustic29_zero_4Hz.wav,acoustic,4,5.53969899999993,0,1,4,58,20,39,2,4,4,4.52679108,NaN,6104.3188647,2,NaN,NaN,NaN
1,13,8,SyncTheta,36,1284_4Hz.avi,orch29_zero_4Hz.wav,orch,4,7.78446239999994,1,1,91,28,74,36,4,2,2,4.52679108,NaN,6111.6855788,2,NaN,NaN,NaN
1,14,8,SyncTheta,64,1098_4Hz.avi,dar11_zero_4Hz.wav,dar,2,3.38534619999973,1,1,34,64,14,45,2,16,2,4.52679108,NaN,6122.0189237,2,NaN,NaN,NaN
1,15,8,SyncTheta,69,1216_4Hz.avi,choir32_zero_4Hz.wav,choir,1,5.5793819999999,0,1,19,11,62,69,4,13,2,4.52679108,NaN,6128.1356336,2,NaN,NaN,NaN
1,16,8,SyncTheta,28,1148_4Hz.avi,orch19_zero_4Hz.wav,orch,4,3.81451910000033,1,1,74,91,36,28,4,15,1,4.52679108,NaN,6136.9356664,2,NaN,NaN,NaN
1,1,9,SyncTheta,12,1077_4Hz.avi,choir18_zero_4Hz.wav,choir,2,3.98619899999994,1,1,72,12,63,38,2,7,3,4.918765175,18.68793092,6457.170025,3,NaN,NaN,NaN
1,2,9,SyncTheta,44,1254_4Hz.avi,acoustic48_zero_4Hz.wav,acoustic,3,5.43184199999996,1,1,60,5,44,21,3,9,2,4.918765175,18.68793092,6463.0367106,3,NaN,NaN,NaN
1,3,9,SyncTheta,38,1184_4Hz.avi,choir33_zero_4Hz.wav,choir,2,7.40370329999951,0,1,12,72,38,63,3,6,1,4.918765175,18.68793092,6471.0534047,3,NaN,NaN,NaN
1,4,9,SyncTheta,102,1012_4Hz.avi,orch18_zero_4Hz.wav,orch,1,4.50427089999994,1,1,102,81,30,42,1,11,2,4.918765175,18.68793092,6480.7701025,3,NaN,NaN,NaN
1,5,9,SyncTheta,49,1221_4Hz.avi,dar21_zero_4Hz.wav,dar,3,3.27807979999943,0,1,49,29,40,80,1,2,2,4.918765175,18.68793092,6488.0701237,3,NaN,NaN,NaN
1,6,9,SyncTheta,81,1444_4Hz.avi,orch4_zero_4Hz.wav,orch,3,6.00584439999966,0,1,81,30,42,102,1,8,2,4.918765175,18.68793092,6492.7701428,3,NaN,NaN,NaN
1,7,9,SyncTheta,60,1249_4Hz.avi,acoustic20_zero_4Hz.wav,acoustic,2,4.53440099999989,0,1,21,5,60,44,3,12,3,4.918765175,18.68793092,6500.7701751,3,NaN,NaN,NaN
1,8,9,SyncTheta,29,1158_4Hz.avi,dar23_zero_4Hz.wav,dar,3,6.4750185999992,0,1,40,29,49,80,2,13,3,4.918765175,18.68793092,6507.6701607,3,NaN,NaN,NaN
1,9,9,SyncTheta,72,1097_4Hz.avi,choir29_zero_4Hz.wav,choir,2,4.22670040000048,1,1,12,72,63,38,2,5,3,4.918765175,18.68793092,6515.6701893,3,NaN,NaN,NaN
1,10,9,SyncTheta,5,1381_4Hz.avi,acoustic1_zero_4Hz.wav,acoustic,3,5.53539860000001,0,1,21,44,60,5,4,1,2,4.918765175,18.68793092,6521.6868738,3,NaN,NaN,NaN
1,11,9,SyncTheta,80,1082_4Hz.avi,dar15_zero_4Hz.wav,dar,1,3.75878019999982,0,1,40,29,49,80,4,10,1,4.918765175,18.68793092,6530.5702578,3,NaN,NaN,NaN
1,12,9,SyncTheta,21,1112_4Hz.avi,acoustic32_zero_4Hz.wav,acoustic,2,3.5905358,1,1,5,21,44,60,2,4,3,4.918765175,18.68793092,6536.2536143,3,NaN,NaN,NaN
1,13,9,SyncTheta,42,1339_4Hz.avi,orch31_zero_4Hz.wav,orch,4,9.77193319999969,0,1,81,30,42,102,3,3,1,4.918765175,18.68793092,6541.9036328,3,NaN,NaN,NaN
1,14,9,SyncTheta,40,1239_4Hz.avi,dar6_zero_4Hz.wav,dar,3,3.28601239999989,1,1,29,49,40,80,3,16,2,4.918765175,18.68793092,6554.0370011,3,NaN,NaN,NaN
1,15,9,SyncTheta,63,1128_4Hz.avi,choir26_zero_4Hz.wav,choir,1,4.15236039999945,1,1,63,38,72,12,1,14,2,4.918765175,18.68793092,6560.0036919,3,NaN,NaN,NaN
1,16,9,SyncTheta,30,1016_4Hz.avi,orch14_zero_4Hz.wav,orch,4,7.45506819999991,1,1,81,42,102,30,4,15,3,4.918765175,18.68793092,6567.3870619,3,NaN,NaN,NaN
1,1,10,SyncDelta,59,1346_1.7Hz.avi,guitar33_zero_1.7Hz.wav,guitar,3,5.97527280000031,0,1,15,93,77,59,4,12,2,4.41931181,18.68793092,6731.9209235,3,NaN,NaN,NaN
1,2,10,SyncDelta,106,1113_1.7Hz.avi,ep29_zero_1.7Hz.wav,ep,2,4.56035750000046,1,1,24,106,87,41,2,15,4,4.41931181,18.68793092,6740.7209482,3,NaN,NaN,NaN
1,3,10,SyncDelta,93,1046_1.7Hz.avi,guitar18_zero_1.7Hz.wav,guitar,4,4.14188430000013,0,1,93,15,77,59,1,5,2,4.41931181,18.68793092,6747.3876384,3,NaN,NaN,NaN
1,4,10,SyncDelta,75,1040_1.7Hz.avi,willow17_zero_1.7Hz.wav,willow,4,5.97895569999946,1,1,27,108,48,75,4,7,3,4.41931181,18.68793092,6754.1876915,3,NaN,NaN,NaN
1,5,10,SyncDelta,61,1207_1.7Hz.avi,synth46_zero_1.7Hz.wav,synth,2,5.25993519999975,0,1,61,89,50,109,1,6,2,4.41931181,18.68793092,6762.2876874,3,NaN,NaN,NaN
1,6,10,SyncDelta,27,1202_1.7Hz.avi,willow16_zero_1.7Hz.wav,willow,3,5.1196616999996,0,1,27,48,108,75,1,2,2,4.41931181,18.68793092,6768.9710388,3,NaN,NaN,NaN
1,7,10,SyncDelta,41,1132_1.7Hz.avi,ep10_zero_1.7Hz.wav,ep,1,5.17057690000001,1,1,41,87,106,24,1,16,3,4.41931181,18.68793092,6777.2044029,3,NaN,NaN,NaN
1,8,10,SyncDelta,89,1393_1.7Hz.avi,synth41_zero_1.7Hz.wav,synth,1,5.59357269999964,0,1,109,61,89,50,3,11,2,4.41931181,18.68793092,6783.8044288,3,NaN,NaN,NaN
1,9,10,SyncDelta,15,1422_1.7Hz.avi,guitar37_zero_1.7Hz.wav,guitar,3,4.91503360000024,0,1,15,93,77,59,1,4,2,4.41931181,18.68793092,6790.887807,3,NaN,NaN,NaN
1,10,10,SyncDelta,87,1142_1.7Hz.avi,ep3_zero_1.7Hz.wav,ep,1,3.61350609999954,0,1,24,41,87,106,3,3,2,4.41931181,18.68793092,6797.8544836,3,NaN,NaN,NaN
1,11,10,SyncDelta,109,1299_1.7Hz.avi,synth18_zero_1.7Hz.wav,synth,1,3.34968939999999,1,1,109,50,89,61,1,8,4,4.41931181,18.68793092,6804.4211661,3,NaN,NaN,NaN
1,12,10,SyncDelta,24,1217_1.7Hz.avi,ep44_zero_1.7Hz.wav,ep,2,3.52358880000065,0,1,87,106,24,41,3,9,4,4.41931181,18.68793092,6809.6878142,3,NaN,NaN,NaN
1,13,10,SyncDelta,108,1415_1.7Hz.avi,willow3_zero_1.7Hz.wav,willow,3,4.57241280000017,1,1,75,48,108,27,3,1,2,4.41931181,18.68793092,6815.7545315,3,NaN,NaN,NaN
1,14,10,SyncDelta,50,1049_1.7Hz.avi,synth43_zero_1.7Hz.wav,synth,4,4.43024799999966,1,1,61,109,89,50,4,13,2,4.41931181,18.68793092,6823.571192,3,NaN,NaN,NaN
1,15,10,SyncDelta,77,1008_1.7Hz.avi,guitar42_zero_1.7Hz.wav,guitar,2,2.54979009999988,1,1,93,77,15,59,2,14,2,4.41931181,18.68793092,6830.8045527,3,NaN,NaN,NaN
1,16,10,SyncDelta,48,1021_1.7Hz.avi,willow12_zero_1.7Hz.wav,willow,1,4.58141009999963,0,1,108,75,27,48,4,10,3,4.41931181,18.68793092,6835.5712295,3,NaN,NaN,NaN
1,1,11,NoFlicker,185,1131_half_amp.avi,guitar45_half_amp.wav,guitar,4,4.97194029999991,1,1,172,146,164,185,4,14,2,4.49961570333333,18.68793092,6998.3884393,3,NaN,NaN,NaN
1,2,11,NoFlicker,176,1405_half_amp.avi,ep46_half_amp.wav,ep,1,6.03933409999991,1,1,176,132,150,189,1,10,3,4.49961570333333,18.68793092,7006.2384928,3,NaN,NaN,NaN
1,3,11,NoFlicker,146,1005_half_amp.avi,guitar14_half_amp.wav,guitar,2,3.49628670000038,0,1,146,185,164,172,1,7,2,4.49961570333333,18.68793092,7015.2384919,3,NaN,NaN,NaN
1,4,11,NoFlicker,152,1445_half_amp.avi,willow2_half_amp.wav,willow,1,4.36494149999999,0,1,178,157,120,152,4,5,2,4.49961570333333,18.68793092,7021.0385141,3,NaN,NaN,NaN
1,5,11,NoFlicker,155,1042_half_amp.avi,synth10_half_amp.wav,synth,1,4.62208259999989,1,1,155,127,131,186,1,6,3,4.49961570333333,18.68793092,7027.4552207,3,NaN,NaN,NaN
1,6,11,NoFlicker,178,1057_half_amp.avi,willow9_half_amp.wav,willow,3,5.07424809999975,1,1,157,120,178,152,3,2,3,4.49961570333333,18.68793092,7034.1052465,3,NaN,NaN,NaN
1,7,11,NoFlicker,189,1051_half_amp.avi,ep14_half_amp.wav,ep,4,3.33043480000015,1,1,132,150,176,189,4,15,1,4.49961570333333,18.68793092,7041.0719029,3,NaN,NaN,NaN
1,8,11,NoFlicker,131,1366_half_amp.avi,synth34_half_amp.wav,synth,1,5.54876130000048,0,1,127,131,186,155,2,11,2,4.49961570333333,18.68793092,7047.1219844,3,NaN,NaN,NaN
1,9,11,NoFlicker,164,1087_half_amp.avi,guitar17_half_amp.wav,guitar,1,5.39298719999988,0,1,172,146,164,185,3,4,2,4.49961570333333,18.68793092,7054.2719501,3,NaN,NaN,NaN
1,10,11,NoFlicker,150,1394_half_amp.avi,ep11_half_amp.wav,ep,4,3.43646290000015,0,1,189,150,176,132,2,3,1,4.49961570333333,18.68793092,7062.9386542,3,NaN,NaN,NaN
1,11,11,NoFlicker,127,1411_half_amp.avi,synth28_half_amp.wav,synth,3,3.40170020000005,1,1,131,155,127,186,3,9,2,4.49961570333333,18.68793092,7068.0386648,3,NaN,NaN,NaN
1,12,11,NoFlicker,132,1356_half_amp.avi,ep30_half_amp.wav,ep,2,5.59596570000031,0,1,150,176,189,132,4,8,4,4.49961570333333,18.68793092,7073.5886854,3,NaN,NaN,NaN
1,13,11,NoFlicker,120,1365_half_amp.avi,willow21_half_amp.wav,willow,2,7.97363700000005,0,1,178,152,120,157,3,1,3,4.49961570333333,18.68793092,7080.8720672,3,NaN,NaN,NaN
1,14,11,NoFlicker,186,1031_half_amp.avi,synth7_half_amp.wav,synth,1,3.423495,0,1,131,127,155,186,4,12,2,4.49961570333333,18.68793092,7090.2887429,3,NaN,NaN,NaN
1,15,11,NoFlicker,172,1350_half_amp.avi,guitar10_half_amp.wav,guitar,1,7.59204109999973,0,1,146,164,185,172,4,16,1,4.49961570333333,18.68793092,7095.3887561,3,NaN,NaN,NaN
1,16,11,NoFlicker,157,1225_half_amp.avi,willow14_half_amp.wav,willow,4,4.37071060000017,1,1,120,178,152,157,4,13,2,4.49961570333333,18.68793092,7105.8888019,3,NaN,NaN,NaN
1,1,12,AsyncTheta,182,1277_4Hz.avi,choir39_oneeighty_4Hz.wav,choir,3,6.87616969999999,0,1,182,159,121,88,1,11,2,4.27768648833333,18.68793092,7255.7226237,3,NaN,NaN,NaN
1,2,12,AsyncTheta,190,1427_4Hz.avi,acoustic46_oneeighty_4Hz.wav,acoustic,2,6.76755130000038,0,1,148,96,190,107,3,6,2,4.27768648833333,18.68793092,7264.3726736,3,NaN,NaN,NaN
1,3,12,AsyncTheta,159,1091_4Hz.avi,choir8_oneeighty_4Hz.wav,choir,2,4.88167670000075,1,1,121,159,88,182,2,9,2,4.27768648833333,18.68793092,7273.0227012,3,NaN,NaN,NaN
1,4,12,AsyncTheta,143,1127_4Hz.avi,orch11_oneeighty_4Hz.wav,orch,1,3.34166860000005,0,1,192,165,137,143,4,15,2,4.27768648833333,18.68793092,7281.1227417,3,NaN,NaN,NaN
1,5,12,AsyncTheta,191,1314_4Hz.avi,dar19_oneeighty_4Hz.wav,dar,1,3.38317599999937,1,1,191,154,114,126,1,2,2,4.27768648833333,18.68793092,7287.2727542,3,NaN,NaN,NaN
1,6,12,AsyncTheta,137,1303_4Hz.avi,orch10_oneeighty_4Hz.wav,orch,4,5.79891640000005,1,1,143,165,192,137,4,12,4,4.27768648833333,18.68793092,7292.3227623,3,NaN,NaN,NaN
1,7,12,AsyncTheta,148,1121_4Hz.avi,acoustic26_oneeighty_4Hz.wav,acoustic,3,5.73278519999985,0,1,107,190,96,148,4,14,3,4.27768648833333,18.68793092,7301.2061255,3,NaN,NaN,NaN
1,8,12,AsyncTheta,114,1322_4Hz.avi,dar14_oneeighty_4Hz.wav,dar,4,4.74109849999968,0,1,126,191,114,154,3,8,2,4.27768648833333,18.68793092,7309.5394628,3,NaN,NaN,NaN
1,9,12,AsyncTheta,121,1354_4Hz.avi,choir22_oneeighty_4Hz.wav,choir,3,5.92676130000018,0,1,88,182,159,121,4,7,1,4.27768648833333,18.68793092,7317.422874,3,NaN,NaN,NaN
1,10,12,AsyncTheta,107,1265_4Hz.avi,acoustic16_oneeighty_4Hz.wav,acoustic,1,3.44045050000022,0,1,148,190,96,107,4,1,1,4.27768648833333,18.68793092,7325.0728965,3,NaN,NaN,NaN
1,11,12,AsyncTheta,154,1074_4Hz.avi,dar5_oneeighty_4Hz.wav,dar,1,5.00127610000072,0,1,114,126,154,191,3,4,2,4.27768648833333,18.68793092,7330.7728934,3,NaN,NaN,NaN
1,12,12,AsyncTheta,96,1027_4Hz.avi,acoustic40_oneeighty_4Hz.wav,acoustic,2,3.30166259999987,0,1,107,190,96,148,3,5,2,4.27768648833333,18.68793092,7337.8395595,3,NaN,NaN,NaN
1,13,12,AsyncTheta,192,1231_4Hz.avi,orch32_oneeighty_4Hz.wav,orch,1,5.88015950000045,0,1,137,192,165,143,2,3,2,4.27768648833333,18.68793092,7343.1896035,3,NaN,NaN,NaN
1,14,12,AsyncTheta,126,1298_4Hz.avi,dar9_oneeighty_4Hz.wav,dar,3,4.87200339999981,0,1,126,154,114,191,1,10,1,4.27768648833333,18.68793092,7350.6896508,3,NaN,NaN,NaN
1,15,12,AsyncTheta,88,1191_4Hz.avi,choir20_oneeighty_4Hz.wav,choir,3,3.90020950000053,0,1,88,182,121,159,1,13,1,4.27768648833333,18.68793092,7357.372979,3,NaN,NaN,NaN
1,16,12,AsyncTheta,165,1410_4Hz.avi,orch43_oneeighty_4Hz.wav,orch,2,3.25916679999955,0,1,165,137,143,192,1,16,1,4.27768648833333,18.68793092,7363.8396837,3,NaN,NaN,NaN
