ParticipantID,TrialNumber,BlockNumber,Condition,ClipID,VideoFile,SoundFile,SoundCategory,Response,RT,Accuracy,ConditionID,Frame1,Frame2,Frame3,Frame4,CorrectKey,EncodingPosition,Rating,BlockDuration,ExperimentDuration,MemoryTestOnset,RunNumber,Age,Handedness,Sex
12,1,1,SyncTheta,187,1164_4Hz.avi,dar12_zero_4Hz.wav,dar,4,5.52445270000044,0,12,187,126,116,114,1,8,2,4.72284872166667,NaN,5381.5756248,1,NaN,NaN,NaN
12,2,1,SyncTheta,141,1401_4Hz.avi,orch12_zero_4Hz.wav,orch,1,4.56000839999979,0,12,143,141,188,137,2,11,4,4.72284872166667,NaN,5390.1422485,1,NaN,NaN,NaN
12,3,1,SyncTheta,188,1036_4Hz.avi,orch26_zero_4Hz.wav,orch,2,4.30229020000024,0,12,143,137,188,141,3,9,1,4.72284872166667,NaN,5396.9089532,1,NaN,NaN,NaN
12,4,1,SyncTheta,143,1127_4Hz.avi,orch11_zero_4Hz.wav,orch,4,6.10092489999988,0,12,137,188,143,141,3,14,3,4.72284872166667,NaN,5403.2423091,1,NaN,NaN,NaN
12,5,1,SyncTheta,96,1027_4Hz.avi,acoustic40_zero_4Hz.wav,acoustic,4,4.96607250000034,0,12,107,96,104,175,2,16,2,4.72284872166667,NaN,5411.3923552,1,NaN,NaN,NaN
12,6,1,SyncTheta,88,1191_4Hz.avi,choir20_zero_4Hz.wav,choir,1,3.83868990000065,0,12,121,181,97,88,4,12,1,4.72284872166667,NaN,5417.9256644,1,NaN,NaN,NaN
12,7,1,SyncTheta,181,1168_4Hz.avi,choir1_zero_4Hz.wav,choir,1,3.55140980000033,1,12,181,88,97,121,1,1,4,4.72284872166667,NaN,5424.5756887,1,NaN,NaN,NaN
12,8,1,SyncTheta,175,1103_4Hz.avi,acoustic10_zero_4Hz.wav,acoustic,4,4.22684130000016,1,12,96,107,104,175,4,2,4,4.72284872166667,NaN,5431.2923444,1,NaN,NaN,NaN
12,9,1,SyncTheta,104,1111_4Hz.avi,acoustic31_zero_4Hz.wav,acoustic,2,4.8811040999999,1,12,175,104,96,107,2,13,4,4.72284872166667,NaN,5437.2423516,1,NaN,NaN,NaN
12,10,1,SyncTheta,114,1322_4Hz.avi,dar14_zero_4Hz.wav,dar,1,4.38160779999998,0,12,187,116,114,126,3,6,1,4.72284872166667,NaN,5444.5757338,1,NaN,NaN,NaN
12,11,1,SyncTheta,126,1298_4Hz.avi,dar9_zero_4Hz.wav,dar,3,3.46280350000052,1,12,116,114,126,187,3,10,2,4.72284872166667,NaN,5451.9924033,1,NaN,NaN,NaN
12,12,1,SyncTheta,97,1368_4Hz.avi,choir30_zero_4Hz.wav,choir,3,3.95991479999975,1,12,121,181,97,88,3,3,2,4.72284872166667,NaN,5457.5257939,1,NaN,NaN,NaN
12,13,1,SyncTheta,137,1303_4Hz.avi,orch10_zero_4Hz.wav,orch,1,4.1877457999999,0,12,143,188,137,141,3,4,3,4.72284872166667,NaN,5463.6757831,1,NaN,NaN,NaN
12,14,1,SyncTheta,121,1354_4Hz.avi,choir22_zero_4Hz.wav,choir,4,5.92304520000016,0,12,121,181,97,88,1,15,2,4.72284872166667,NaN,5469.7258044,1,NaN,NaN,NaN
12,15,1,SyncTheta,116,1420_4Hz.avi,dar18_zero_4Hz.wav,dar,1,4.4769925999999,0,12,187,126,114,116,4,7,2,4.72284872166667,NaN,5478.9591559,1,NaN,NaN,NaN
12,16,1,SyncTheta,107,1265_4Hz.avi,acoustic16_zero_4Hz.wav,acoustic,2,2.89743069999986,0,12,104,175,96,107,4,5,2,4.72284872166667,NaN,5485.5758365,1,NaN,NaN,NaN
12,1,2,NoFlicker,2,1431_half_amp.avi,dar24_half_amp.wav,dar,3,5.48955039999964,1,12,56,43,2,80,3,7,3,4.65380072833333,NaN,5664.6263245,1,NaN,NaN,NaN
12,2,2,NoFlicker,85,1383_half_amp.avi,orch23_half_amp.wav,orch,4,3.58444090000012,0,12,57,102,85,17,3,12,3,4.65380072833333,NaN,5671.5263018,1,NaN,NaN,NaN
12,3,2,NoFlicker,57,1309_half_amp.avi,orch7_half_amp.wav,orch,3,4.67978970000058,0,12,17,57,102,85,2,3,4,4.65380072833333,NaN,5678.2429692,1,NaN,NaN,NaN
12,4,2,NoFlicker,17,1162_half_amp.avi,orch1_half_amp.wav,orch,3,4.5445351999997,0,12,17,57,85,102,1,16,2,4.65380072833333,NaN,5685.7096535,1,NaN,NaN,NaN
12,5,2,NoFlicker,23,1330_half_amp.avi,acoustic47_half_amp.wav,acoustic,3,2.46918319999986,1,12,60,47,23,1,3,15,4,4.65380072833333,NaN,5692.2597034,1,NaN,NaN,NaN
12,6,2,NoFlicker,52,1387_half_amp.avi,choir2_half_amp.wav,choir,4,4.15597979999984,0,12,72,68,52,10,3,9,2,4.65380072833333,NaN,5697.026379,1,NaN,NaN,NaN
12,7,2,NoFlicker,72,1097_half_amp.avi,choir29_half_amp.wav,choir,2,5.02179950000027,1,12,10,72,68,52,2,1,4,4.65380072833333,NaN,5703.8264414,1,NaN,NaN,NaN
12,8,2,NoFlicker,47,1292_half_amp.avi,acoustic28_half_amp.wav,acoustic,3,3.84885360000044,1,12,60,23,47,1,3,10,5,4.65380072833333,NaN,5711.2930473,1,NaN,NaN,NaN
12,9,2,NoFlicker,60,1249_half_amp.avi,acoustic20_half_amp.wav,acoustic,2,2.33532340000056,0,12,60,1,47,23,1,13,4,4.65380072833333,NaN,5718.4930749,1,NaN,NaN,NaN
12,10,2,NoFlicker,56,1063_half_amp.avi,dar16_half_amp.wav,dar,2,4.17062970000006,0,12,56,2,80,43,1,4,2,4.65380072833333,NaN,5724.0764177,1,NaN,NaN,NaN
12,11,2,NoFlicker,80,1082_half_amp.avi,dar15_half_amp.wav,dar,3,5.04459010000028,0,12,80,2,43,56,1,8,3,4.65380072833333,NaN,5730.3764706,1,NaN,NaN,NaN
12,12,2,NoFlicker,68,1023_half_amp.avi,choir3_half_amp.wav,choir,2,4.84609289999935,0,12,68,72,10,52,1,6,1,4.65380072833333,NaN,5738.5597887,1,NaN,NaN,NaN
12,13,2,NoFlicker,102,1012_half_amp.avi,orch18_half_amp.wav,orch,1,3.46734819999983,0,12,17,102,85,57,2,2,5,4.65380072833333,NaN,5746.6598497,1,NaN,NaN,NaN
12,14,2,NoFlicker,10,1179_half_amp.avi,choir4_half_amp.wav,choir,3,2.89742179999939,0,12,72,52,68,10,4,14,2,4.65380072833333,NaN,5753.3098636,1,NaN,NaN,NaN
12,15,2,NoFlicker,43,1141_half_amp.avi,dar13_half_amp.wav,dar,2,2.98573029999989,1,12,80,43,56,2,2,5,3,4.65380072833333,NaN,5759.3932078,1,NaN,NaN,NaN
12,16,2,NoFlicker,1,1064_half_amp.avi,acoustic12_half_amp.wav,acoustic,2,3.24001549999957,0,12,60,23,47,1,4,11,4,4.65380072833333,NaN,5764.7598648,1,NaN,NaN,NaN
12,1,3,SyncDelta,131,1366_1.7Hz.avi,synth34_zero_1.7Hz.wav,synth,4,4.26576310000019,1,12,163,184,125,131,4,8,1,4.11767270333333,NaN,5915.7769145,1,NaN,NaN,NaN
12,2,3,SyncDelta,119,1189_1.7Hz.avi,willow11_zero_1.7Hz.wav,willow,1,4.38131930000054,0,12,167,119,152,171,2,11,1,4.11767270333333,NaN,5922.260254,1,NaN,NaN,NaN
12,3,3,SyncDelta,167,1177_1.7Hz.avi,willow24_zero_1.7Hz.wav,willow,2,2.47636199999943,0,12,167,119,171,152,1,6,2,4.11767270333333,NaN,5928.5269483,1,NaN,NaN,NaN
12,4,3,SyncDelta,152,1445_1.7Hz.avi,willow2_zero_1.7Hz.wav,willow,2,5.19370359999994,0,12,119,167,152,171,3,16,1,4.11767270333333,NaN,5934.6102944,1,NaN,NaN,NaN
12,5,3,SyncDelta,180,1006_1.7Hz.avi,ep4_zero_1.7Hz.wav,ep,4,4.17499260000022,0,12,177,180,150,123,2,12,2,4.11767270333333,NaN,5943.0937046,1,NaN,NaN,NaN
12,6,3,SyncDelta,115,1370_1.7Hz.avi,guitar9_zero_1.7Hz.wav,guitar,3,3.32087210000009,0,12,179,183,164,115,4,13,1,4.11767270333333,NaN,5949.443692,1,NaN,NaN,NaN
12,7,3,SyncDelta,179,1186_1.7Hz.avi,guitar30_zero_1.7Hz.wav,guitar,4,4.75277720000031,1,12,183,164,115,179,4,9,4,4.11767270333333,NaN,5954.7103467,1,NaN,NaN,NaN
12,8,3,SyncDelta,150,1394_1.7Hz.avi,ep11_zero_1.7Hz.wav,ep,3,4.9721757999996,0,12,177,180,123,150,4,3,4,4.11767270333333,NaN,5961.5103532,1,NaN,NaN,NaN
12,9,3,SyncDelta,177,1283_1.7Hz.avi,ep38_zero_1.7Hz.wav,ep,3,3.57915520000006,1,12,123,180,177,150,3,7,4,4.11767270333333,NaN,5968.0770424,1,NaN,NaN,NaN
12,10,3,SyncDelta,125,1050_1.7Hz.avi,synth36_zero_1.7Hz.wav,synth,4,5.10154390000025,1,12,131,184,163,125,4,1,2,4.11767270333333,NaN,5973.8937449,1,NaN,NaN,NaN
12,11,3,SyncDelta,184,1052_1.7Hz.avi,synth40_zero_1.7Hz.wav,synth,2,4.28221919999942,0,12,184,125,163,131,1,14,1,4.11767270333333,NaN,5980.8770774,1,NaN,NaN,NaN
12,12,3,SyncDelta,164,1087_1.7Hz.avi,guitar17_zero_1.7Hz.wav,guitar,4,3.33310350000011,1,12,183,115,179,164,4,10,2,4.11767270333333,NaN,5987.4770953,1,NaN,NaN,NaN
12,13,3,SyncDelta,171,1280_1.7Hz.avi,willow19_zero_1.7Hz.wav,willow,2,3.98753399999987,0,12,152,167,171,119,3,4,2,4.11767270333333,NaN,5992.8771063,1,NaN,NaN,NaN
12,14,3,SyncDelta,183,1374_1.7Hz.avi,guitar16_zero_1.7Hz.wav,guitar,2,4.50209439999981,0,12,183,179,115,164,1,15,1,4.11767270333333,NaN,5999.6938201,1,NaN,NaN,NaN
12,15,3,SyncDelta,163,1441_1.7Hz.avi,synth27_zero_1.7Hz.wav,synth,2,1.71247500000027,1,12,184,163,131,125,2,2,1,4.11767270333333,NaN,6006.7105016,1,NaN,NaN,NaN
12,16,3,SyncDelta,123,1067_1.7Hz.avi,ep37_zero_1.7Hz.wav,ep,3,3.30261210000026,1,12,180,177,123,150,3,5,5,4.11767270333333,NaN,6011.8272446,1,NaN,NaN,NaN
12,1,4,AsyncTheta,100,1107_4Hz.avi,synth23_oneeighty_4Hz.wav,synth,3,4.53208119999999,1,12,54,8,100,50,3,11,1,4.30878871833333,NaN,6177.6609628,1,NaN,NaN,NaN
12,2,4,AsyncTheta,27,1202_4Hz.avi,willow16_oneeighty_4Hz.wav,willow,2,7.97997329999998,1,12,18,27,94,37,2,3,1,4.30878871833333,NaN,6185.4942895,1,NaN,NaN,NaN
12,3,4,AsyncTheta,94,1109_4Hz.avi,willow6_oneeighty_4Hz.wav,willow,4,2.8806867000003,0,12,27,37,94,18,3,2,1,4.30878871833333,NaN,6195.0609801,1,NaN,NaN,NaN
12,4,4,AsyncTheta,18,1101_4Hz.avi,willow13_oneeighty_4Hz.wav,willow,2,4.5701681999999,0,12,18,37,27,94,1,13,1,4.30878871833333,NaN,6200.2609948,1,NaN,NaN,NaN
12,5,4,AsyncTheta,26,1190_4Hz.avi,ep7_oneeighty_4Hz.wav,ep,3,3.9765223000004,0,12,6,26,24,101,2,15,2,4.30878871833333,NaN,6207.7109836,1,NaN,NaN,NaN
12,6,4,AsyncTheta,90,1273_4Hz.avi,guitar23_oneeighty_4Hz.wav,guitar,1,2.82049490000009,0,12,15,53,90,3,3,10,2,4.30878871833333,NaN,6214.2776942,1,NaN,NaN,NaN
12,7,4,AsyncTheta,53,1197_4Hz.avi,guitar46_oneeighty_4Hz.wav,guitar,2,3.24466410000059,1,12,15,53,90,3,2,5,1,4.30878871833333,NaN,6220.5943467,1,NaN,NaN,NaN
12,8,4,AsyncTheta,6,1007_4Hz.avi,ep8_oneeighty_4Hz.wav,ep,4,3.72366310000052,0,12,6,26,24,101,1,4,2,4.30878871833333,NaN,6225.3943622,1,NaN,NaN,NaN
12,9,4,AsyncTheta,24,1217_4Hz.avi,ep44_oneeighty_4Hz.wav,ep,1,2.07249070000034,0,12,101,6,24,26,3,14,3,4.30878871833333,NaN,6232.4444091,1,NaN,NaN,NaN
12,10,4,AsyncTheta,50,1049_4Hz.avi,synth43_oneeighty_4Hz.wav,synth,1,2.27288859999953,1,12,50,100,54,8,1,6,1,4.30878871833333,NaN,6237.2111246,1,NaN,NaN,NaN
12,11,4,AsyncTheta,54,1181_4Hz.avi,synth12_oneeighty_4Hz.wav,synth,1,3.42048880000038,0,12,8,54,50,100,2,12,1,4.30878871833333,NaN,6243.0944363,1,NaN,NaN,NaN
12,12,4,AsyncTheta,15,1422_4Hz.avi,guitar37_oneeighty_4Hz.wav,guitar,1,4.6231128999998,0,12,90,3,15,53,3,7,3,4.30878871833333,NaN,6248.6444242,1,NaN,NaN,NaN
12,13,4,AsyncTheta,37,1237_4Hz.avi,willow15_oneeighty_4Hz.wav,willow,1,2.80709329999991,1,12,37,94,18,27,1,1,3,4.30878871833333,NaN,6255.1278073,1,NaN,NaN,NaN
12,14,4,AsyncTheta,3,1156_4Hz.avi,guitar31_oneeighty_4Hz.wav,guitar,3,3.99933389999933,0,12,3,90,53,15,1,16,2,4.30878871833333,NaN,6259.7444799,1,NaN,NaN,NaN
12,15,4,AsyncTheta,8,1252_4Hz.avi,synth25_oneeighty_4Hz.wav,synth,4,3.06091759999981,1,12,50,100,54,8,4,9,3,4.30878871833333,NaN,6265.3444714,1,NaN,NaN,NaN
12,16,4,AsyncTheta,101,1295_4Hz.avi,ep40_oneeighty_4Hz.wav,ep,4,2.0677540000006,1,12,26,6,24,101,4,8,5,4.30878871833333,NaN,6270.7612113,1,NaN,NaN,NaN
12,1,5,SyncDelta,155,1042_1.7Hz.avi,synth10_zero_1.7Hz.wav,synth,4,4.91665410000041,0,12,129,155,111,140,2,11,1,4.60978473833333,NaN,6515.2950783,2,NaN,NaN,NaN
12,2,5,SyncDelta,156,1060_1.7Hz.avi,willow7_zero_1.7Hz.wav,willow,2,3.23346309999943,1,12,149,156,157,118,2,14,2,4.60978473833333,NaN,6522.2284004,2,NaN,NaN,NaN
12,3,5,SyncDelta,157,1225_1.7Hz.avi,willow14_zero_1.7Hz.wav,willow,3,3.69394509999984,0,12,156,118,149,157,4,2,1,4.60978473833333,NaN,6527.2451067,2,NaN,NaN,NaN
12,4,5,SyncDelta,118,1020_1.7Hz.avi,willow22_zero_1.7Hz.wav,willow,1,3.91294579999976,0,12,149,157,118,156,3,16,1,4.60978473833333,NaN,6532.9617829,2,NaN,NaN,NaN
12,5,5,SyncDelta,117,1144_1.7Hz.avi,ep39_zero_1.7Hz.wav,ep,2,3.38754820000031,1,12,144,117,173,176,2,12,4,4.60978473833333,NaN,6540.1951364,2,NaN,NaN,NaN
12,6,5,SyncDelta,161,1433_1.7Hz.avi,guitar2_zero_1.7Hz.wav,guitar,3,3.58183960000042,1,12,170,172,161,112,3,7,3,4.60978473833333,NaN,6546.6284885,2,NaN,NaN,NaN
12,7,5,SyncDelta,172,1350_1.7Hz.avi,guitar10_zero_1.7Hz.wav,guitar,2,3.00986789999934,0,12,172,170,161,112,1,3,1,4.60978473833333,NaN,6551.7284673,2,NaN,NaN,NaN
12,8,5,SyncDelta,176,1405_1.7Hz.avi,ep46_zero_1.7Hz.wav,ep,1,3.01383390000046,0,12,117,144,173,176,4,6,2,4.60978473833333,NaN,6557.6451496,2,NaN,NaN,NaN
12,9,5,SyncDelta,144,1255_1.7Hz.avi,ep28_zero_1.7Hz.wav,ep,4,2.64905180000005,0,12,176,144,117,173,2,9,1,4.60978473833333,NaN,6562.8118271,2,NaN,NaN,NaN
12,10,5,SyncDelta,140,1270_1.7Hz.avi,synth17_zero_1.7Hz.wav,synth,2,5.87038639999992,1,12,129,140,111,155,2,5,3,4.60978473833333,NaN,6568.1618716,2,NaN,NaN,NaN
12,11,5,SyncDelta,129,1286_1.7Hz.avi,synth30_zero_1.7Hz.wav,synth,3,3.91478490000009,1,12,140,155,129,111,3,13,4,4.60978473833333,NaN,6575.7785569,2,NaN,NaN,NaN
12,12,5,SyncDelta,112,1388_1.7Hz.avi,guitar39_zero_1.7Hz.wav,guitar,2,2.60103900000013,1,12,161,112,170,172,2,4,3,4.60978473833333,NaN,6581.5118766,2,NaN,NaN,NaN
12,13,5,SyncDelta,149,1200_1.7Hz.avi,willow8_zero_1.7Hz.wav,willow,1,3.27988239999922,0,12,157,149,118,156,2,1,2,4.60978473833333,NaN,6585.9952509,2,NaN,NaN,NaN
12,14,5,SyncDelta,170,1062_1.7Hz.avi,guitar3_zero_1.7Hz.wav,guitar,3,4.54707230000076,1,12,112,172,170,161,3,15,3,4.60978473833333,NaN,6591.1952722,2,NaN,NaN,NaN
12,15,5,SyncDelta,111,1390_1.7Hz.avi,synth3_zero_1.7Hz.wav,synth,3,2.60418579999987,1,12,140,155,111,129,3,10,5,4.60978473833333,NaN,6598.7119169,2,NaN,NaN,NaN
12,16,5,SyncDelta,173,1348_1.7Hz.avi,ep31_zero_1.7Hz.wav,ep,3,2.93500539999968,1,12,144,117,173,176,3,8,2,4.60978473833333,NaN,6604.2619284,2,NaN,NaN,NaN
12,1,6,AsyncTheta,89,1393_4Hz.avi,synth41_oneeighty_4Hz.wav,synth,1,3.90554389999943,0,12,70,71,89,35,3,12,2,4.530407285,NaN,6776.1290293,2,NaN,NaN,NaN
12,2,6,AsyncTheta,55,1044_4Hz.avi,willow4_oneeighty_4Hz.wav,willow,4,2.76818950000052,1,12,22,66,75,55,4,10,4,4.530407285,NaN,6782.5624337,2,NaN,NaN,NaN
12,3,6,AsyncTheta,66,1215_4Hz.avi,willow18_oneeighty_4Hz.wav,willow,1,4.25157490000038,0,12,22,55,75,66,4,6,1,4.530407285,NaN,6788.4123976,2,NaN,NaN,NaN
12,4,6,AsyncTheta,22,1212_4Hz.avi,willow20_oneeighty_4Hz.wav,willow,2,3.23716929999955,0,12,66,75,22,55,3,16,2,4.530407285,NaN,6795.1790841,2,NaN,NaN,NaN
12,5,6,AsyncTheta,16,1442_4Hz.avi,ep34_oneeighty_4Hz.wav,ep,3,3.6977839000001,0,12,87,86,65,16,4,15,4,4.530407285,NaN,6800.629099,2,NaN,NaN,NaN
12,6,6,AsyncTheta,7,1017_4Hz.avi,guitar47_oneeighty_4Hz.wav,guitar,1,3.35639459999948,0,12,67,73,7,77,3,9,3,4.530407285,NaN,6807.4124528,2,NaN,NaN,NaN
12,7,6,AsyncTheta,73,1369_4Hz.avi,guitar19_oneeighty_4Hz.wav,guitar,1,3.23036580000007,0,12,77,7,67,73,4,7,1,4.530407285,NaN,6813.4624667,2,NaN,NaN,NaN
12,8,6,AsyncTheta,65,1013_4Hz.avi,ep22_oneeighty_4Hz.wav,ep,3,7.48266409999997,0,12,16,65,86,87,2,3,4,4.530407285,NaN,6818.8791413,2,NaN,NaN,NaN
12,9,6,AsyncTheta,87,1142_4Hz.avi,ep3_oneeighty_4Hz.wav,ep,4,2.98792260000027,0,12,86,65,87,16,3,5,2,4.530407285,NaN,6829.3291971,2,NaN,NaN,NaN
12,10,6,AsyncTheta,71,1076_4Hz.avi,synth21_oneeighty_4Hz.wav,synth,1,2.49184779999996,1,12,71,70,89,35,1,1,1,4.530407285,NaN,6835.662528,2,NaN,NaN,NaN
12,11,6,AsyncTheta,35,1039_4Hz.avi,synth5_oneeighty_4Hz.wav,synth,3,4.61255679999977,0,12,35,70,89,71,1,13,2,4.530407285,NaN,6841.5958698,2,NaN,NaN,NaN
12,12,6,AsyncTheta,77,1008_4Hz.avi,guitar42_oneeighty_4Hz.wav,guitar,2,4.79127320000043,0,12,73,67,7,77,4,8,1,4.530407285,NaN,6848.7792197,2,NaN,NaN,NaN
12,13,6,AsyncTheta,75,1040_4Hz.avi,willow17_oneeighty_4Hz.wav,willow,2,3.85108620000028,0,12,55,66,22,75,4,2,3,4.530407285,NaN,6856.012596,2,NaN,NaN,NaN
12,14,6,AsyncTheta,67,1310_4Hz.avi,guitar21_oneeighty_4Hz.wav,guitar,3,5.03103779999947,0,12,77,67,7,73,2,14,4,4.530407285,NaN,6862.0459459,2,NaN,NaN,NaN
12,15,6,AsyncTheta,70,1093_4Hz.avi,synth6_oneeighty_4Hz.wav,synth,1,4.23388560000058,0,12,35,89,70,71,3,11,3,4.530407285,NaN,6868.6292679,2,NaN,NaN,NaN
12,16,6,AsyncTheta,86,1278_4Hz.avi,ep35_oneeighty_4Hz.wav,ep,4,2.81078510000043,0,12,86,87,65,16,1,4,4,4.530407285,NaN,6876.1959861,2,NaN,NaN,NaN
12,1,7,SyncTheta,154,1074_4Hz.avi,dar5_zero_4Hz.wav,dar,3,3.82016680000015,0,12,103,154,136,82,2,12,2,4.19509533,NaN,7026.3796996,2,NaN,NaN,NaN
12,2,7,SyncTheta,145,1352_4Hz.avi,orch39_zero_4Hz.wav,orch,4,5.52225710000039,0,12,165,145,110,134,2,5,2,4.19509533,NaN,7032.4130187,2,NaN,NaN,NaN
12,3,7,SyncTheta,134,1026_4Hz.avi,orch16_zero_4Hz.wav,orch,4,3.76025870000012,0,12,145,134,165,110,2,4,1,4.19509533,NaN,7041.1130431,2,NaN,NaN,NaN
12,4,7,SyncTheta,110,1443_4Hz.avi,orch3_zero_4Hz.wav,orch,2,3.83007579999958,0,12,165,145,110,134,3,8,3,4.19509533,NaN,7047.2464219,2,NaN,NaN,NaN
12,5,7,SyncTheta,113,1037_4Hz.avi,acoustic23_zero_4Hz.wav,acoustic,2,3.99104290000014,1,12,83,113,79,148,2,14,4,4.19509533,NaN,7052.6297828,2,NaN,NaN,NaN
12,6,7,SyncTheta,159,1091_4Hz.avi,choir8_zero_4Hz.wav,choir,1,3.93703939999978,0,12,76,159,78,124,2,7,1,4.19509533,NaN,7059.3797542,2,NaN,NaN,NaN
12,7,7,SyncTheta,76,1293_4Hz.avi,choir23_zero_4Hz.wav,choir,2,4.82958080000026,0,12,76,159,78,124,1,1,1,4.19509533,NaN,7066.0131021,2,NaN,NaN,NaN
12,8,7,SyncTheta,148,1121_4Hz.avi,acoustic26_zero_4Hz.wav,acoustic,2,3.71040039999934,0,12,83,79,113,148,4,10,2,4.19509533,NaN,7072.3798167,2,NaN,NaN,NaN
12,9,7,SyncTheta,79,1071_4Hz.avi,acoustic17_zero_4Hz.wav,acoustic,2,5.25291349999952,0,12,113,148,83,79,4,13,2,4.19509533,NaN,7079.1131769,2,NaN,NaN,NaN
12,10,7,SyncTheta,82,1449_4Hz.avi,dar17_zero_4Hz.wav,dar,3,4.4644573000005,1,12,136,103,82,154,3,3,4,4.19509533,NaN,7085.9798174,2,NaN,NaN,NaN
12,11,7,SyncTheta,103,1084_4Hz.avi,dar20_zero_4Hz.wav,dar,3,3.9088742999993,1,12,136,154,103,82,3,15,1,4.19509533,NaN,7091.9965067,2,NaN,NaN,NaN
12,12,7,SyncTheta,78,1301_4Hz.avi,choir11_zero_4Hz.wav,choir,2,4.25874300000032,0,12,124,76,78,159,3,6,3,4.19509533,NaN,7097.6798533,2,NaN,NaN,NaN
12,13,7,SyncTheta,165,1410_4Hz.avi,orch43_zero_4Hz.wav,orch,1,3.94208040000012,0,12,134,110,145,165,4,2,2,4.19509533,NaN,7104.6465382,2,NaN,NaN,NaN
12,14,7,SyncTheta,124,1183_4Hz.avi,choir24_zero_4Hz.wav,choir,4,4.78441569999995,0,12,124,78,159,76,1,16,2,4.19509533,NaN,7110.8632476,2,NaN,NaN,NaN
12,15,7,SyncTheta,136,1175_4Hz.avi,dar4_zero_4Hz.wav,dar,3,3.78099650000058,1,12,103,154,136,82,3,9,2,4.19509533,NaN,7118.8132448,2,NaN,NaN,NaN
12,16,7,SyncTheta,83,1139_4Hz.avi,acoustic27_zero_4Hz.wav,acoustic,2,6.97572179999952,0,12,83,113,79,148,1,11,1,4.19509533,NaN,7124.046623,2,NaN,NaN,NaN
12,1,8,NoFlicker,31,1404_half_amp.avi,dar8_half_amp.wav,dar,2,4.77841989999979,0,12,34,64,31,49,3,8,3,4.19027352166667,NaN,7275.3136381,2,NaN,NaN,NaN
12,2,8,NoFlicker,81,1444_half_amp.avi,orch4_half_amp.wav,orch,4,3.53260399999999,1,12,33,91,36,81,4,10,1,4.19027352166667,NaN,7282.4469872,2,NaN,NaN,NaN
12,3,8,NoFlicker,33,1136_half_amp.avi,orch38_half_amp.wav,orch,1,6.81544880000001,0,12,36,91,33,81,3,7,2,4.19027352166667,NaN,7289.0803345,2,NaN,NaN,NaN
12,4,8,NoFlicker,91,1340_half_amp.avi,orch46_half_amp.wav,orch,1,4.01943070000016,0,12,36,81,91,33,3,15,2,4.19027352166667,NaN,7297.4303838,2,NaN,NaN,NaN
12,5,8,NoFlicker,44,1254_half_amp.avi,acoustic48_half_amp.wav,acoustic,3,4.03387579999981,0,12,20,58,9,44,4,12,4,4.19027352166667,NaN,7302.8470637,2,NaN,NaN,NaN
12,6,8,NoFlicker,19,1247_half_amp.avi,choir38_half_amp.wav,choir,1,3.50184309999986,1,12,19,13,69,63,1,14,2,4.19027352166667,NaN,7310.0470501,2,NaN,NaN,NaN
12,7,8,NoFlicker,13,1201_half_amp.avi,choir7_half_amp.wav,choir,1,4.7789872000003,0,12,69,63,19,13,4,4,2,4.19027352166667,NaN,7315.4137372,2,NaN,NaN,NaN
12,8,8,NoFlicker,9,1054_half_amp.avi,acoustic44_half_amp.wav,acoustic,1,5.59711499999958,0,12,58,20,44,9,4,5,5,4.19027352166667,NaN,7321.7637756,2,NaN,NaN,NaN
12,9,8,NoFlicker,20,1236_half_amp.avi,acoustic25_half_amp.wav,acoustic,4,5.74253599999975,1,12,58,9,44,20,4,9,3,4.19027352166667,NaN,7328.7637716,2,NaN,NaN,NaN
12,10,8,NoFlicker,34,1319_half_amp.avi,dar22_half_amp.wav,dar,3,5.22945339999933,1,12,49,64,34,31,3,1,4,4.19027352166667,NaN,7337.1804859,2,NaN,NaN,NaN
12,11,8,NoFlicker,49,1221_half_amp.avi,dar21_half_amp.wav,dar,2,3.82002329999978,1,12,31,49,34,64,2,11,2,4.19027352166667,NaN,7344.8804736,2,NaN,NaN,NaN
12,12,8,NoFlicker,63,1128_half_amp.avi,choir26_half_amp.wav,choir,4,5.4128154,0,12,69,63,19,13,2,13,2,4.19027352166667,NaN,7351.1971849,2,NaN,NaN,NaN
12,13,8,NoFlicker,36,1284_half_amp.avi,orch29_half_amp.wav,orch,3,4.66934430000038,0,12,33,36,91,81,2,2,1,4.19027352166667,NaN,7358.7305368,2,NaN,NaN,NaN
12,14,8,NoFlicker,69,1216_half_amp.avi,choir32_half_amp.wav,choir,1,5.02177560000018,1,12,69,19,13,63,1,16,2,4.19027352166667,NaN,7365.3471935,2,NaN,NaN,NaN
12,15,8,NoFlicker,64,1098_half_amp.avi,dar11_half_amp.wav,dar,1,3.00598210000044,1,12,64,49,34,31,1,3,3,4.19027352166667,NaN,7372.2472122,2,NaN,NaN,NaN
12,16,8,NoFlicker,58,1323_half_amp.avi,acoustic29_half_amp.wav,acoustic,1,4.45245669999986,0,12,9,44,20,58,4,6,4,4.19027352166667,NaN,7378.097299,2,NaN,NaN,NaN
12,1,9,SyncTheta,122,1289_4Hz.avi,dar3_zero_4Hz.wav,dar,3,3.27993700000025,0,12,122,191,162,147,1,10,2,5.52796557666667,18.4060758583333,7658.864505,3,NaN,NaN,NaN
12,2,9,SyncTheta,158,1206_4Hz.avi,orch6_zero_4Hz.wav,orch,1,4.53965190000054,1,12,158,192,174,142,1,12,2,5.52796557666667,18.4060758583333,7664.5311967,3,NaN,NaN,NaN
12,3,9,SyncTheta,174,1119_4Hz.avi,orch45_zero_4Hz.wav,orch,3,3.94286600000032,1,12,192,142,174,158,3,2,2,5.52796557666667,18.4060758583333,7671.481201,3,NaN,NaN,NaN
12,4,9,SyncTheta,142,1155_4Hz.avi,orch9_zero_4Hz.wav,orch,2,3.90616389999923,1,12,192,142,158,174,2,15,2,5.52796557666667,18.4060758583333,7678.4478931,3,NaN,NaN,NaN
12,5,9,SyncTheta,190,1427_4Hz.avi,acoustic46_zero_4Hz.wav,acoustic,3,3.99583359999997,0,12,190,169,133,105,1,14,3,5.52796557666667,18.4060758583333,7684.0812347,3,NaN,NaN,NaN
12,6,9,SyncTheta,160,1421_4Hz.avi,choir13_zero_4Hz.wav,choir,1,3.40872829999989,0,12,98,160,182,139,2,11,2,5.52796557666667,18.4060758583333,7689.8645785,3,NaN,NaN,NaN
12,7,9,SyncTheta,182,1277_4Hz.avi,choir39_zero_4Hz.wav,choir,1,5.04840760000025,0,12,139,182,98,160,2,4,2,5.52796557666667,18.4060758583333,7696.3646185,3,NaN,NaN,NaN
12,8,9,SyncTheta,133,1341_4Hz.avi,acoustic14_zero_4Hz.wav,acoustic,3,5.97769949999929,0,12,169,133,105,190,2,3,4,5.52796557666667,18.4060758583333,7704.1146451,3,NaN,NaN,NaN
12,9,9,SyncTheta,105,1003_4Hz.avi,acoustic6_zero_4Hz.wav,acoustic,3,5.07680020000043,0,12,105,133,190,169,1,9,4,5.52796557666667,18.4060758583333,7711.7979742,3,NaN,NaN,NaN
12,10,9,SyncTheta,162,1358_4Hz.avi,dar7_zero_4Hz.wav,dar,2,2.64239170000019,1,12,191,162,122,147,2,5,2,5.52796557666667,18.4060758583333,7719.7146818,3,NaN,NaN,NaN
12,11,9,SyncTheta,191,1314_4Hz.avi,dar19_zero_4Hz.wav,dar,1,3.8437329999997,0,12,162,191,122,147,2,13,2,5.52796557666667,18.4060758583333,7724.1479934,3,NaN,NaN,NaN
12,12,9,SyncTheta,98,1014_4Hz.avi,choir41_zero_4Hz.wav,choir,2,3.82077519999984,1,12,139,98,160,182,2,8,3,5.52796557666667,18.4060758583333,7730.8313975,3,NaN,NaN,NaN
12,13,9,SyncTheta,192,1231_4Hz.avi,orch32_zero_4Hz.wav,orch,2,4.91661879999992,0,12,192,158,142,174,1,1,2,5.52796557666667,18.4060758583333,7736.2980866,3,NaN,NaN,NaN
12,14,9,SyncTheta,139,1192_4Hz.avi,choir5_zero_4Hz.wav,choir,2,5.88699530000031,0,12,98,160,139,182,3,16,2,5.52796557666667,18.4060758583333,7742.7814288,3,NaN,NaN,NaN
12,15,9,SyncTheta,147,1304_4Hz.avi,dar10_zero_4Hz.wav,dar,1,3.99830720000045,1,12,147,162,122,191,1,7,1,5.52796557666667,18.4060758583333,7751.7147336,3,NaN,NaN,NaN
12,16,9,SyncTheta,169,1083_4Hz.avi,acoustic43_zero_4Hz.wav,acoustic,4,2.81658679999964,0,12,105,190,169,133,3,6,4,5.52796557666667,18.4060758583333,7757.26475,3,NaN,NaN,NaN
12,1,10,AsyncTheta,95,1359_4Hz.avi,synth33_oneeighty_4Hz.wav,synth,4,5.05372779999925,1,12,51,109,61,95,4,11,1,4.216378515,18.4060758583333,7906.6984552,3,NaN,NaN,NaN
12,2,10,AsyncTheta,92,1030_4Hz.avi,willow23_oneeighty_4Hz.wav,willow,2,5.69742339999993,0,12,108,48,92,32,3,7,1,4.216378515,18.4060758583333,7913.3984973,3,NaN,NaN,NaN
12,3,10,AsyncTheta,108,1415_4Hz.avi,willow3_oneeighty_4Hz.wav,willow,1,3.66329730000052,0,12,48,108,32,92,2,3,3,4.216378515,18.4060758583333,7922.331824,3,NaN,NaN,NaN
12,4,10,AsyncTheta,32,1360_4Hz.avi,willow10_oneeighty_4Hz.wav,willow,3,7.24556159999975,0,12,32,92,108,48,1,15,1,4.216378515,18.4060758583333,7928.7485033,3,NaN,NaN,NaN
12,5,10,AsyncTheta,99,1173_4Hz.avi,ep6_oneeighty_4Hz.wav,ep,1,3.70735710000008,0,12,106,41,25,99,4,16,4,4.216378515,18.4060758583333,7938.5318663,3,NaN,NaN,NaN
12,6,10,AsyncTheta,59,1346_4Hz.avi,guitar33_oneeighty_4Hz.wav,guitar,1,4.38814210000055,1,12,59,84,93,46,1,12,3,4.216378515,18.4060758583333,7945.5819125,3,NaN,NaN,NaN
12,7,10,AsyncTheta,84,1294_4Hz.avi,guitar6_oneeighty_4Hz.wav,guitar,3,4.01111949999995,1,12,46,93,84,59,3,4,2,4.216378515,18.4060758583333,7951.4985694,3,NaN,NaN,NaN
12,8,10,AsyncTheta,41,1132_4Hz.avi,ep10_oneeighty_4Hz.wav,ep,1,4.33801250000033,0,12,99,41,106,25,2,2,2,4.216378515,18.4060758583333,7957.2319916,3,NaN,NaN,NaN
12,9,10,AsyncTheta,106,1113_4Hz.avi,ep29_oneeighty_4Hz.wav,ep,4,3.66583199999968,1,12,25,41,99,106,4,10,2,4.216378515,18.4060758583333,7964.3319251,3,NaN,NaN,NaN
12,10,10,AsyncTheta,109,1299_4Hz.avi,synth18_oneeighty_4Hz.wav,synth,1,4.48741169999994,0,12,95,51,61,109,4,5,1,4.216378515,18.4060758583333,7969.6319748,3,NaN,NaN,NaN
12,11,10,AsyncTheta,61,1207_4Hz.avi,synth46_oneeighty_4Hz.wav,synth,1,3.77285940000002,0,12,51,109,61,95,3,14,1,4.216378515,18.4060758583333,7976.2486551,3,NaN,NaN,NaN
12,12,10,AsyncTheta,93,1046_4Hz.avi,guitar18_oneeighty_4Hz.wav,guitar,2,4.3464640000002,0,12,59,84,46,93,4,9,1,4.216378515,18.4060758583333,7982.8486721,3,NaN,NaN,NaN
12,13,10,AsyncTheta,48,1021_4Hz.avi,willow12_oneeighty_4Hz.wav,willow,1,5.0109723000005,1,12,48,108,32,92,1,1,2,4.216378515,18.4060758583333,7988.6486859,3,NaN,NaN,NaN
12,14,10,AsyncTheta,46,1210_4Hz.avi,guitar48_oneeighty_4Hz.wav,guitar,3,4.08539230000042,0,12,46,93,84,59,1,13,2,4.216378515,18.4060758583333,7995.5487016,3,NaN,NaN,NaN
12,15,10,AsyncTheta,51,1331_4Hz.avi,synth47_oneeighty_4Hz.wav,synth,2,3.20908089999921,0,12,61,109,95,51,4,8,1,4.216378515,18.4060758583333,8002.5320232,3,NaN,NaN,NaN
12,16,10,AsyncTheta,25,1094_4Hz.avi,ep15_oneeighty_4Hz.wav,ep,2,4.37006639999981,0,12,41,106,99,25,4,6,2,4.216378515,18.4060758583333,8009.0654019,3,NaN,NaN,NaN
12,1,11,SyncDelta,135,1154_1.7Hz.avi,synth38_zero_1.7Hz.wav,synth,2,2.57944090000001,0,12,186,127,128,135,4,11,1,4.03966316833333,18.4060758583333,8161.1324213,3,NaN,NaN,NaN
12,2,11,SyncDelta,120,1365_1.7Hz.avi,willow21_zero_1.7Hz.wav,willow,4,3.75310309999986,0,12,130,120,153,178,2,5,1,4.03966316833333,18.4060758583333,8166.0158141,3,NaN,NaN,NaN
12,3,11,SyncDelta,130,1081_1.7Hz.avi,willow5_zero_1.7Hz.wav,willow,2,3.47328420000031,1,12,153,130,178,120,2,3,1,4.03966316833333,18.4060758583333,8171.7491482,3,NaN,NaN,NaN
12,4,11,SyncDelta,178,1057_1.7Hz.avi,willow9_zero_1.7Hz.wav,willow,1,3.78109029999996,0,12,153,178,120,130,2,13,1,4.03966316833333,18.4060758583333,8178.1324644,3,NaN,NaN,NaN
12,5,11,SyncDelta,138,1149_1.7Hz.avi,ep2_zero_1.7Hz.wav,ep,1,3.17005119999976,0,12,189,132,138,166,3,10,4,4.03966316833333,18.4060758583333,8183.3991788,3,NaN,NaN,NaN
12,6,11,SyncDelta,151,1259_1.7Hz.avi,guitar43_zero_1.7Hz.wav,guitar,1,2.73395209999944,1,12,151,146,185,168,1,14,2,4.03966316833333,18.4060758583333,8188.1491568,3,NaN,NaN,NaN
12,7,11,SyncDelta,185,1131_1.7Hz.avi,guitar45_zero_1.7Hz.wav,guitar,3,2.91765199999827,1,12,151,168,185,146,3,4,1,4.03966316833333,18.4060758583333,8192.5658672,3,NaN,NaN,NaN
12,8,11,SyncDelta,189,1051_1.7Hz.avi,ep14_zero_1.7Hz.wav,ep,1,2.42632080000112,1,12,189,132,166,138,1,1,4,4.03966316833333,18.4060758583333,8197.8658831,3,NaN,NaN,NaN
12,9,11,SyncDelta,132,1356_1.7Hz.avi,ep30_zero_1.7Hz.wav,ep,3,3.7139072000009,0,12,166,132,138,189,2,9,1,4.03966316833333,18.4060758583333,8203.3492278,3,NaN,NaN,NaN
12,10,11,SyncDelta,127,1411_1.7Hz.avi,synth28_zero_1.7Hz.wav,synth,2,2.59242600000107,0,12,128,135,127,186,3,6,2,4.03966316833333,18.4060758583333,8209.5825961,3,NaN,NaN,NaN
12,11,11,SyncDelta,186,1031_1.7Hz.avi,synth7_zero_1.7Hz.wav,synth,1,3.38132289999885,1,12,186,128,127,135,1,16,1,4.03966316833333,18.4060758583333,8215.0326495,3,NaN,NaN,NaN
12,12,11,SyncDelta,168,1204_1.7Hz.avi,guitar36_zero_1.7Hz.wav,guitar,2,5.54131729999972,1,12,185,168,146,151,2,12,1,4.03966316833333,18.4060758583333,8220.9993074,3,NaN,NaN,NaN
12,13,11,SyncDelta,153,1157_1.7Hz.avi,willow1_zero_1.7Hz.wav,willow,3,4.72513769999932,0,12,153,178,130,120,1,2,1,4.03966316833333,18.4060758583333,8229.0826816,3,NaN,NaN,NaN
12,14,11,SyncDelta,146,1005_1.7Hz.avi,guitar14_zero_1.7Hz.wav,guitar,2,3.87417319999986,0,12,146,151,185,168,1,15,1,4.03966316833333,18.4060758583333,8236.5659694,3,NaN,NaN,NaN
12,15,11,SyncDelta,128,1269_1.7Hz.avi,synth14_zero_1.7Hz.wav,synth,1,3.51058279999961,0,12,127,186,135,128,4,8,1,4.03966316833333,18.4060758583333,8243.5326616,3,NaN,NaN,NaN
12,16,11,SyncDelta,166,1227_1.7Hz.avi,ep5_zero_1.7Hz.wav,ep,3,6.15111590000015,0,12,166,132,189,138,1,7,1,4.03966316833333,18.4060758583333,8249.7993157,3,NaN,NaN,NaN
12,1,12,NoFlicker,14,1416_half_amp.avi,dar1_half_amp.wav,dar,2,4.64654619999965,0,12,40,45,14,29,3,8,1,4.21297843166667,18.4060758583333,8409.4830592,3,NaN,NaN,NaN
12,2,12,NoFlicker,28,1148_half_amp.avi,orch19_half_amp.wav,orch,1,4.2335020999999,0,12,74,42,30,28,4,11,3,4.21297843166667,18.4060758583333,8415.6164569,3,NaN,NaN,NaN
12,3,12,NoFlicker,30,1016_half_amp.avi,orch14_half_amp.wav,orch,3,3.57649640000091,1,12,74,42,30,28,3,7,1,4.21297843166667,18.4060758583333,8421.26645,3,NaN,NaN,NaN
12,4,12,NoFlicker,74,1337_half_amp.avi,orch24_half_amp.wav,orch,1,2.88830669999879,0,12,28,74,30,42,2,15,2,4.21297843166667,18.4060758583333,8426.899767,3,NaN,NaN,NaN
12,5,12,NoFlicker,5,1381_half_amp.avi,acoustic1_half_amp.wav,acoustic,4,4.5679841000001,0,12,21,5,4,39,2,16,1,4.21297843166667,18.4060758583333,8432.9998082,3,NaN,NaN,NaN
12,6,12,NoFlicker,11,1448_half_amp.avi,choir36_half_amp.wav,choir,3,3.25128849999965,1,12,62,12,11,38,3,12,3,4.21297843166667,18.4060758583333,8439.233134,3,NaN,NaN,NaN
12,7,12,NoFlicker,12,1077_half_amp.avi,choir18_half_amp.wav,choir,4,4.35031809999964,1,12,62,11,38,12,4,3,2,4.21297843166667,18.4060758583333,8445.5165528,3,NaN,NaN,NaN
12,8,12,NoFlicker,39,1061_half_amp.avi,acoustic11_half_amp.wav,acoustic,4,3.57273789999999,0,12,5,4,39,21,3,2,4,4.21297843166667,18.4060758583333,8453.016577,3,NaN,NaN,NaN
12,9,12,NoFlicker,4,1167_half_amp.avi,acoustic37_half_amp.wav,acoustic,2,4.88197500000024,0,12,21,5,4,39,3,14,5,4.21297843166667,18.4060758583333,8459.3999233,3,NaN,NaN,NaN
12,10,12,NoFlicker,40,1239_half_amp.avi,dar6_half_amp.wav,dar,3,6.47478650000085,0,12,29,45,14,40,4,1,2,4.21297843166667,18.4060758583333,8465.7499505,3,NaN,NaN,NaN
12,11,12,NoFlicker,45,1203_half_amp.avi,dar2_half_amp.wav,dar,2,3.54082740000013,1,12,29,45,14,40,2,9,2,4.21297843166667,18.4060758583333,8473.8998825,3,NaN,NaN,NaN
12,12,12,NoFlicker,38,1184_half_amp.avi,choir33_half_amp.wav,choir,4,3.82183760000044,0,12,12,38,11,62,2,4,1,4.21297843166667,18.4060758583333,8479.4165899,3,NaN,NaN,NaN
12,13,12,NoFlicker,42,1339_half_amp.avi,orch31_half_amp.wav,orch,1,3.26576620000014,0,12,74,42,28,30,2,5,1,4.21297843166667,18.4060758583333,8486.6166141,3,NaN,NaN,NaN
12,14,12,NoFlicker,62,1058_half_amp.avi,choir19_half_amp.wav,choir,2,4.33623939999961,0,12,62,12,11,38,1,13,1,4.21297843166667,18.4060758583333,8491.266596,3,NaN,NaN,NaN
12,15,12,NoFlicker,29,1158_half_amp.avi,dar23_half_amp.wav,dar,3,4.16137940000044,0,12,29,14,40,45,1,6,2,4.21297843166667,18.4060758583333,8497.2999464,3,NaN,NaN,NaN
12,16,12,NoFlicker,21,1112_half_amp.avi,acoustic32_half_amp.wav,acoustic,1,4.70418509999945,0,12,4,21,39,5,2,10,4,4.21297843166667,18.4060758583333,8504.1833029,3,NaN,NaN,NaN
