ParticipantID,TrialNumber,BlockNumber,Condition,ClipID,VideoFile,SoundFile,SoundCategory,Response,RT,Accuracy,ConditionID,Frame1,Frame2,Frame3,Frame4,CorrectKey,EncodingPosition,Rating,BlockDuration,ExperimentDuration,MemoryTestOnset,RunNumber,Age,Handedness,Sex
11,1,1,AsyncTheta,156,1060_4Hz.avi,willow7_oneeighty_4Hz.wav,willow,2,9.97129500000301,0,11,167,130,156,149,3,16,4,6.97811887166667,NaN,18407.0181431,1,NaN,NaN,NaN
11,2,1,AsyncTheta,177,1283_4Hz.avi,ep38_oneeighty_4Hz.wav,ep,2,6.83983509999962,1,11,173,177,144,138,2,1,4,6.97811887166667,NaN,18419.4182796,1,NaN,NaN,NaN
11,3,1,AsyncTheta,130,1081_4Hz.avi,willow5_oneeighty_4Hz.wav,willow,2,6.2664909999985,1,11,156,130,149,167,2,4,4,6.97811887166667,NaN,18428.168285,1,NaN,NaN,NaN
11,4,1,AsyncTheta,138,1149_4Hz.avi,ep2_oneeighty_4Hz.wav,ep,4,7.35772160000124,1,11,173,177,144,138,4,10,3,6.97811887166667,NaN,18437.0682829,1,NaN,NaN,NaN
11,5,1,AsyncTheta,151,1259_4Hz.avi,guitar43_oneeighty_4Hz.wav,guitar,2,3.28824309999982,0,11,151,170,179,161,1,14,3,6.97811887166667,NaN,18446.0016423,1,NaN,NaN,NaN
11,6,1,AsyncTheta,163,1441_4Hz.avi,synth27_oneeighty_4Hz.wav,synth,4,5.15359750000061,1,11,140,129,128,163,4,3,2,6.97811887166667,NaN,18451.2349781,1,NaN,NaN,NaN
11,7,1,AsyncTheta,173,1348_4Hz.avi,ep31_oneeighty_4Hz.wav,ep,1,7.20720629999778,1,11,173,144,177,138,1,12,4,6.97811887166667,NaN,18459.3016385,1,NaN,NaN,NaN
11,8,1,AsyncTheta,129,1286_4Hz.avi,synth30_oneeighty_4Hz.wav,synth,4,5.13155389999883,0,11,163,128,129,140,3,5,3,6.97811887166667,NaN,18468.9016583,1,NaN,NaN,NaN
11,9,1,AsyncTheta,170,1062_4Hz.avi,guitar3_oneeighty_4Hz.wav,guitar,3,5.40949919999912,1,11,179,151,170,161,3,2,4,6.97811887166667,NaN,18476.5183798,1,NaN,NaN,NaN
11,10,1,AsyncTheta,128,1269_4Hz.avi,synth14_oneeighty_4Hz.wav,synth,1,7.31762420000086,0,11,140,163,129,128,4,6,5,6.97811887166667,NaN,18484.1017099,1,NaN,NaN,NaN
11,11,1,AsyncTheta,140,1270_4Hz.avi,synth17_oneeighty_4Hz.wav,synth,4,7.29125080000085,1,11,128,163,129,140,4,7,5,6.97811887166667,NaN,18492.8683978,1,NaN,NaN,NaN
11,12,1,AsyncTheta,144,1255_4Hz.avi,ep28_oneeighty_4Hz.wav,ep,3,7.49242640000011,1,11,173,177,144,138,3,8,2,6.97811887166667,NaN,18502.0351257,1,NaN,NaN,NaN
11,13,1,AsyncTheta,167,1177_4Hz.avi,willow24_oneeighty_4Hz.wav,willow,2,16.0663958999976,0,11,167,149,156,130,1,13,3,6.97811887166667,NaN,18512.5851875,1,NaN,NaN,NaN
11,14,1,AsyncTheta,179,1186_4Hz.avi,guitar30_oneeighty_4Hz.wav,guitar,2,4.77793480000037,0,11,170,151,161,179,4,15,3,6.97811887166667,NaN,18530.8185466,1,NaN,NaN,NaN
11,15,1,AsyncTheta,149,1200_4Hz.avi,willow8_oneeighty_4Hz.wav,willow,4,7.38967419999972,0,11,130,156,149,167,3,9,4,6.97811887166667,NaN,18538.5352633,1,NaN,NaN,NaN
11,16,1,AsyncTheta,161,1433_4Hz.avi,guitar2_oneeighty_4Hz.wav,guitar,3,6.71585979999873,1,11,179,170,161,151,3,11,5,6.97811887166667,NaN,18549.035269,1,NaN,NaN,NaN
11,1,2,NoFlicker,141,1401_half_amp.avi,orch12_half_amp.wav,orch,4,5.74215959999856,0,11,165,141,110,145,2,12,5,6.24932991833333,NaN,18786.1026695,1,NaN,NaN,NaN
11,2,2,NoFlicker,79,1071_half_amp.avi,acoustic17_half_amp.wav,acoustic,1,5.78433709999808,0,11,148,104,79,113,3,2,5,6.24932991833333,NaN,18793.8360051,1,NaN,NaN,NaN
11,3,2,NoFlicker,145,1352_half_amp.avi,orch39_half_amp.wav,orch,1,5.23764959999971,0,11,165,110,141,145,4,4,5,6.24932991833333,NaN,18802.3360266,1,NaN,NaN,NaN
11,4,2,NoFlicker,148,1121_half_amp.avi,acoustic26_half_amp.wav,acoustic,3,15.2217639999981,1,11,113,104,148,79,3,10,5,6.24932991833333,NaN,18810.2027478,1,NaN,NaN,NaN
11,5,2,NoFlicker,97,1368_half_amp.avi,choir30_half_amp.wav,choir,3,4.16966659999889,1,11,159,124,97,76,3,7,5,6.24932991833333,NaN,18828.6028111,1,NaN,NaN,NaN
11,6,2,NoFlicker,136,1175_half_amp.avi,dar4_half_amp.wav,dar,2,3.4816138999995,1,11,116,136,82,154,2,5,5,6.24932991833333,NaN,18834.8028072,1,NaN,NaN,NaN
11,7,2,NoFlicker,113,1037_half_amp.avi,acoustic23_half_amp.wav,acoustic,4,3.83644809999896,1,11,148,104,79,113,4,13,5,6.24932991833333,NaN,18841.2361417,1,NaN,NaN,NaN
11,8,2,NoFlicker,154,1074_half_amp.avi,dar5_half_amp.wav,dar,1,3.82559490000131,1,11,154,82,116,136,1,11,5,6.24932991833333,NaN,18847.7361642,1,NaN,NaN,NaN
11,9,2,NoFlicker,159,1091_half_amp.avi,choir8_half_amp.wav,choir,3,12.5176299000013,1,11,97,76,159,124,3,1,5,6.24932991833333,NaN,18853.6028429,1,NaN,NaN,NaN
11,10,2,NoFlicker,82,1449_half_amp.avi,dar17_half_amp.wav,dar,1,6.48592849999841,1,11,82,154,136,116,1,14,5,6.24932991833333,NaN,18868.2695864,1,NaN,NaN,NaN
11,11,2,NoFlicker,116,1420_half_amp.avi,dar18_half_amp.wav,dar,2,6.28422299999875,1,11,154,116,82,136,2,16,3,6.24932991833333,NaN,18877.4196142,1,NaN,NaN,NaN
11,12,2,NoFlicker,104,1111_half_amp.avi,acoustic31_half_amp.wav,acoustic,2,5.70597529999941,1,11,113,104,148,79,2,8,5,6.24932991833333,NaN,18886.7529559,1,NaN,NaN,NaN
11,13,2,NoFlicker,110,1443_half_amp.avi,orch3_half_amp.wav,orch,2,3.38347529999737,1,11,141,110,165,145,2,9,5,6.24932991833333,NaN,18894.6363152,1,NaN,NaN,NaN
11,14,2,NoFlicker,76,1293_half_amp.avi,choir23_half_amp.wav,choir,1,7.45280270000148,1,11,76,159,124,97,1,15,2,6.24932991833333,NaN,18901.2530198,1,NaN,NaN,NaN
11,15,2,NoFlicker,165,1410_half_amp.avi,orch43_half_amp.wav,orch,1,8.15626039999916,1,11,165,141,110,145,1,6,4,6.24932991833333,NaN,18911.753022,1,NaN,NaN,NaN
11,16,2,NoFlicker,124,1183_half_amp.avi,choir24_half_amp.wav,choir,2,9.31866979999904,0,11,76,159,124,97,3,3,4,6.24932991833333,NaN,18921.4863908,1,NaN,NaN,NaN
11,1,3,SyncTheta,37,1237_4Hz.avi,willow15_zero_4Hz.wav,willow,1,9.42658650000158,0,11,27,94,37,18,3,15,5,7.02745116666667,NaN,19210.9539558,1,NaN,NaN,NaN
11,2,3,SyncTheta,6,1007_4Hz.avi,ep8_zero_4Hz.wav,ep,4,8.34969840000122,0,11,6,24,101,26,1,4,3,7.02745116666667,NaN,19222.3873206,1,NaN,NaN,NaN
11,3,3,SyncTheta,18,1101_4Hz.avi,willow13_zero_4Hz.wav,willow,4,6.51550939999652,0,11,18,27,94,37,1,3,4,7.02745116666667,NaN,19233.1207218,1,NaN,NaN,NaN
11,4,3,SyncTheta,24,1217_4Hz.avi,ep44_zero_4Hz.wav,ep,1,6.2429252999973,1,11,24,6,101,26,1,12,4,7.02745116666667,NaN,19241.5040517,1,NaN,NaN,NaN
11,5,3,SyncTheta,53,1197_4Hz.avi,guitar46_zero_4Hz.wav,guitar,1,3.73280340000201,1,11,53,90,15,3,1,10,5,7.02745116666667,NaN,19249.9707403,1,NaN,NaN,NaN
11,6,3,SyncTheta,100,1107_4Hz.avi,synth23_zero_4Hz.wav,synth,3,3.89246060000005,1,11,8,54,100,50,3,1,5,7.02745116666667,NaN,19256.0374281,1,NaN,NaN,NaN
11,7,3,SyncTheta,101,1295_4Hz.avi,ep40_zero_4Hz.wav,ep,2,3.96351339999819,1,11,6,101,24,26,2,14,5,7.02745116666667,NaN,19261.7708033,1,NaN,NaN,NaN
11,8,3,SyncTheta,54,1181_4Hz.avi,synth12_zero_4Hz.wav,synth,3,7.28875509999853,1,11,8,100,54,50,3,6,5,7.02745116666667,NaN,19268.0374636,1,NaN,NaN,NaN
11,9,3,SyncTheta,90,1273_4Hz.avi,guitar23_zero_4Hz.wav,guitar,1,15.5717385999997,0,11,3,90,15,53,2,2,3,7.02745116666667,NaN,19277.2874937,1,NaN,NaN,NaN
11,10,3,SyncTheta,8,1252_4Hz.avi,synth25_zero_4Hz.wav,synth,1,5.11913370000184,0,11,100,54,8,50,3,13,5,7.02745116666667,NaN,19294.7375491,1,NaN,NaN,NaN
11,11,3,SyncTheta,50,1049_4Hz.avi,synth43_zero_4Hz.wav,synth,3,3.49990020000041,1,11,100,54,50,8,3,16,4,7.02745116666667,NaN,19302.0042875,1,NaN,NaN,NaN
11,12,3,SyncTheta,26,1190_4Hz.avi,ep7_zero_4Hz.wav,ep,3,5.6511258999999,0,11,26,101,6,24,1,9,4,7.02745116666667,NaN,19308.8042507,1,NaN,NaN,NaN
11,13,3,SyncTheta,27,1202_4Hz.avi,willow16_zero_4Hz.wav,willow,2,3.75014879999799,1,11,37,27,94,18,2,8,2,7.02745116666667,NaN,19317.2043096,1,NaN,NaN,NaN
11,14,3,SyncTheta,3,1156_4Hz.avi,guitar31_zero_4Hz.wav,guitar,3,7.72143869999854,0,11,15,3,90,53,2,11,4,7.02745116666667,NaN,19323.137631,1,NaN,NaN,NaN
11,15,3,SyncTheta,94,1109_4Hz.avi,willow6_zero_4Hz.wav,willow,4,9.4321966000025,1,11,37,27,18,94,4,7,3,7.02745116666667,NaN,19334.1376684,1,NaN,NaN,NaN
11,16,3,SyncTheta,15,1422_4Hz.avi,guitar37_zero_4Hz.wav,guitar,1,6.09288190000007,1,11,15,90,53,3,1,5,3,7.02745116666667,NaN,19346.4710644,1,NaN,NaN,NaN
11,1,4,SyncDelta,28,1148_1.7Hz.avi,orch19_zero_1.7Hz.wav,orch,1,8.16614470000059,1,11,28,91,30,17,1,13,3,6.21086716666667,NaN,19576.9550736,1,NaN,NaN,NaN
11,2,4,SyncDelta,5,1381_1.7Hz.avi,acoustic1_zero_1.7Hz.wav,acoustic,3,3.95164980000118,1,11,58,1,5,4,3,3,3,6.21086716666667,NaN,19587.5384466,1,NaN,NaN,NaN
11,3,4,SyncDelta,17,1162_1.7Hz.avi,orch1_zero_1.7Hz.wav,orch,2,13.3416193000012,0,11,91,28,17,30,3,5,4,6.21086716666667,NaN,19593.6884611,1,NaN,NaN,NaN
11,4,4,SyncDelta,4,1167_1.7Hz.avi,acoustic37_zero_1.7Hz.wav,acoustic,1,5.16089250000005,0,11,58,4,1,5,2,9,4,6.21086716666667,NaN,19610.0885384,1,NaN,NaN,NaN
11,5,4,SyncDelta,11,1448_1.7Hz.avi,choir36_zero_1.7Hz.wav,choir,3,7.92327769999974,1,11,10,69,11,12,3,12,5,6.21086716666667,NaN,19616.8552004,1,NaN,NaN,NaN
11,6,4,SyncDelta,14,1416_1.7Hz.avi,dar1_zero_1.7Hz.wav,dar,1,3.19194609999977,0,11,29,64,2,14,4,1,5,6.21086716666667,NaN,19627.921923,1,NaN,NaN,NaN
11,7,4,SyncDelta,1,1064_1.7Hz.avi,acoustic12_zero_1.7Hz.wav,acoustic,1,5.83483400000114,1,11,1,5,4,58,1,15,4,6.21086716666667,NaN,19633.1053269,1,NaN,NaN,NaN
11,8,4,SyncDelta,64,1098_1.7Hz.avi,dar11_zero_1.7Hz.wav,dar,3,6.56697770000028,1,11,29,14,64,2,3,10,1,6.21086716666667,NaN,19640.7719831,1,NaN,NaN,NaN
11,9,4,SyncDelta,10,1179_1.7Hz.avi,choir4_zero_1.7Hz.wav,choir,4,4.05761680000069,1,11,12,11,69,10,4,2,5,6.21086716666667,NaN,19649.8053205,1,NaN,NaN,NaN
11,10,4,SyncDelta,2,1431_1.7Hz.avi,dar24_zero_1.7Hz.wav,dar,2,7.74586760000238,1,11,64,2,29,14,2,11,4,6.21086716666667,NaN,19655.8386932,1,NaN,NaN,NaN
11,11,4,SyncDelta,29,1158_1.7Hz.avi,dar23_zero_1.7Hz.wav,dar,3,5.30559079999875,1,11,2,14,29,64,3,14,5,6.21086716666667,NaN,19665.7720125,1,NaN,NaN,NaN
11,12,4,SyncDelta,58,1323_1.7Hz.avi,acoustic29_zero_1.7Hz.wav,acoustic,3,13.1047728000012,0,11,5,58,1,4,2,4,5,6.21086716666667,NaN,19673.6053727,1,NaN,NaN,NaN
11,13,4,SyncDelta,91,1340_1.7Hz.avi,orch46_zero_1.7Hz.wav,orch,4,8.00749110000106,1,11,17,28,30,91,4,7,1,6.21086716666667,NaN,19689.1554625,1,NaN,NaN,NaN
11,14,4,SyncDelta,12,1077_1.7Hz.avi,choir18_zero_1.7Hz.wav,choir,3,6.7311245000019,1,11,69,11,12,10,3,16,3,6.21086716666667,NaN,19699.8387834,1,NaN,NaN,NaN
11,15,4,SyncDelta,30,1016_1.7Hz.avi,orch14_zero_1.7Hz.wav,orch,2,6.19163789999948,1,11,91,30,17,28,2,6,4,6.21086716666667,NaN,19709.3055138,1,NaN,NaN,NaN
11,16,4,SyncDelta,69,1216_1.7Hz.avi,choir32_zero_1.7Hz.wav,choir,1,8.39363950000188,0,11,12,11,69,10,3,8,4,6.21086716666667,NaN,19716.9555004,1,NaN,NaN,NaN
11,1,5,SyncDelta,33,1136_1.7Hz.avi,orch38_zero_1.7Hz.wav,orch,4,8.55466420000084,0,11,33,81,57,36,1,14,2,6.763366975,NaN,20122.5065855,2,NaN,NaN,NaN
11,2,5,SyncDelta,23,1330_1.7Hz.avi,acoustic47_zero_1.7Hz.wav,acoustic,1,4.35092790000272,0,11,44,20,23,9,3,1,4,6.763366975,NaN,20133.7899849,2,NaN,NaN,NaN
11,3,5,SyncDelta,81,1444_1.7Hz.avi,orch4_zero_1.7Hz.wav,orch,3,2.55756939999992,1,11,33,36,81,57,3,3,5,6.763366975,NaN,20139.9233317,2,NaN,NaN,NaN
11,4,5,SyncDelta,9,1054_1.7Hz.avi,acoustic44_zero_1.7Hz.wav,acoustic,3,6.11785360000067,1,11,44,23,9,20,3,4,4,6.763366975,NaN,20145.8566687,2,NaN,NaN,NaN
11,5,5,SyncDelta,13,1201_1.7Hz.avi,choir7_zero_1.7Hz.wav,choir,2,4.29476499999873,1,11,63,13,19,52,2,12,1,6.763366975,NaN,20155.1400545,2,NaN,NaN,NaN
11,6,5,SyncDelta,31,1404_1.7Hz.avi,dar8_zero_1.7Hz.wav,dar,3,7.30528060000142,1,11,34,43,31,49,3,10,4,6.763366975,NaN,20162.0067006,2,NaN,NaN,NaN
11,7,5,SyncDelta,44,1254_1.7Hz.avi,acoustic48_zero_1.7Hz.wav,acoustic,2,9.53314809999938,1,11,23,44,9,20,2,8,4,6.763366975,NaN,20171.1067309,2,NaN,NaN,NaN
11,8,5,SyncDelta,49,1221_1.7Hz.avi,dar21_zero_1.7Hz.wav,dar,2,4.48811319999731,1,11,43,49,34,31,2,11,3,6.763366975,NaN,20183.8735091,2,NaN,NaN,NaN
11,9,5,SyncDelta,19,1247_1.7Hz.avi,choir38_zero_1.7Hz.wav,choir,3,5.8122091999976,1,11,52,13,19,63,3,5,5,6.763366975,NaN,20191.3734956,2,NaN,NaN,NaN
11,10,5,SyncDelta,34,1319_1.7Hz.avi,dar22_zero_1.7Hz.wav,dar,2,5.12384440000096,1,11,31,34,43,49,2,13,5,6.763366975,NaN,20198.57348,2,NaN,NaN,NaN
11,11,5,SyncDelta,43,1141_1.7Hz.avi,dar13_zero_1.7Hz.wav,dar,1,5.6445234999992,1,11,43,49,34,31,1,16,2,6.763366975,NaN,20205.356837,2,NaN,NaN,NaN
11,12,5,SyncDelta,20,1236_1.7Hz.avi,acoustic25_zero_1.7Hz.wav,acoustic,4,8.04112290000194,0,11,9,20,44,23,2,2,4,6.763366975,NaN,20213.8402235,2,NaN,NaN,NaN
11,13,5,SyncDelta,57,1309_1.7Hz.avi,orch7_zero_1.7Hz.wav,orch,2,10.7767439000017,1,11,36,57,81,33,2,9,5,6.763366975,NaN,20224.9568974,2,NaN,NaN,NaN
11,14,5,SyncDelta,52,1387_1.7Hz.avi,choir2_zero_1.7Hz.wav,choir,1,6.52163279999877,1,11,52,63,19,13,1,15,5,6.763366975,NaN,20238.5236444,2,NaN,NaN,NaN
11,15,5,SyncDelta,36,1284_1.7Hz.avi,orch29_zero_1.7Hz.wav,orch,2,4.29763930000263,1,11,57,36,81,33,2,6,3,6.763366975,NaN,20246.5903662,2,NaN,NaN,NaN
11,16,5,SyncDelta,63,1128_1.7Hz.avi,choir26_zero_1.7Hz.wav,choir,2,9.39469770000142,1,11,52,63,19,13,2,7,4,6.763366975,NaN,20253.8237084,2,NaN,NaN,NaN
11,1,6,NoFlicker,134,1026_half_amp.avi,orch16_half_amp.wav,orch,1,4.80060800000138,1,11,134,192,137,142,1,16,2,7.11531275666667,NaN,20523.6578446,2,NaN,NaN,NaN
11,2,6,NoFlicker,105,1003_half_amp.avi,acoustic6_half_amp.wav,acoustic,2,11.0101323000017,1,11,83,105,190,96,2,4,3,7.11531275666667,NaN,20530.6245201,2,NaN,NaN,NaN
11,3,6,NoFlicker,142,1155_half_amp.avi,orch9_half_amp.wav,orch,4,2.77136379999865,1,11,134,137,192,142,4,2,4,7.11531275666667,NaN,20543.0412097,2,NaN,NaN,NaN
11,4,6,NoFlicker,96,1027_half_amp.avi,acoustic40_half_amp.wav,acoustic,1,14.2253314000009,0,11,190,96,105,83,2,7,4,7.11531275666667,NaN,20548.8245857,2,NaN,NaN,NaN
11,5,6,NoFlicker,182,1277_half_amp.avi,choir39_half_amp.wav,choir,2,9.66876069999853,1,11,98,182,88,78,2,13,3,7.11531275666667,NaN,20565.6412773,2,NaN,NaN,NaN
11,6,6,NoFlicker,114,1322_half_amp.avi,dar14_half_amp.wav,dar,4,5.43840189999901,1,11,103,191,122,114,4,1,5,7.11531275666667,NaN,20578.4580219,2,NaN,NaN,NaN
11,7,6,NoFlicker,83,1139_half_amp.avi,acoustic27_half_amp.wav,acoustic,2,5.89585480000096,1,11,105,83,190,96,2,11,4,7.11531275666667,NaN,20585.508008,2,NaN,NaN,NaN
11,8,6,NoFlicker,122,1289_half_amp.avi,dar3_half_amp.wav,dar,4,10.3063136000019,0,11,191,103,122,114,3,9,3,7.11531275666667,NaN,20594.1747285,2,NaN,NaN,NaN
11,9,6,NoFlicker,78,1301_half_amp.avi,choir11_half_amp.wav,choir,2,5.60902290000013,1,11,98,78,88,182,2,3,3,7.11531275666667,NaN,20607.4914073,2,NaN,NaN,NaN
11,10,6,NoFlicker,191,1314_half_amp.avi,dar19_half_amp.wav,dar,1,17.3543267999994,0,11,103,122,114,191,4,12,2,7.11531275666667,NaN,20615.7914639,2,NaN,NaN,NaN
11,11,6,NoFlicker,103,1084_half_amp.avi,dar20_half_amp.wav,dar,1,1.49378230000002,1,11,103,114,191,122,1,15,5,7.11531275666667,NaN,20635.0415222,2,NaN,NaN,NaN
11,12,6,NoFlicker,190,1427_half_amp.avi,acoustic46_half_amp.wav,acoustic,4,7.28897270000016,1,11,96,83,105,190,4,5,3,7.11531275666667,NaN,20639.9748471,2,NaN,NaN,NaN
11,13,6,NoFlicker,137,1303_half_amp.avi,orch10_half_amp.wav,orch,2,6.62053049999668,1,11,134,137,142,192,2,8,3,7.11531275666667,NaN,20649.4248756,2,NaN,NaN,NaN
11,14,6,NoFlicker,98,1014_half_amp.avi,choir41_half_amp.wav,choir,3,17.2371262999986,0,11,78,88,182,98,4,14,3,7.11531275666667,NaN,20659.3082418,2,NaN,NaN,NaN
11,15,6,NoFlicker,192,1231_half_amp.avi,orch32_half_amp.wav,orch,4,4.51496549999865,0,11,192,142,137,134,1,6,4,7.11531275666667,NaN,20678.0916277,2,NaN,NaN,NaN
11,16,6,NoFlicker,88,1191_half_amp.avi,choir20_half_amp.wav,choir,3,6.1517531999998,1,11,182,98,88,78,3,10,5,7.11531275666667,NaN,20684.0583448,2,NaN,NaN,NaN
11,1,7,SyncTheta,66,1215_4Hz.avi,willow18_zero_4Hz.wav,willow,1,6.45020540000041,1,11,66,32,75,108,1,15,2,6.17450727166667,NaN,20914.1590185,2,NaN,NaN,NaN
11,2,7,SyncTheta,86,1278_4Hz.avi,ep35_zero_4Hz.wav,ep,4,6.3713190999988,0,11,87,106,86,25,3,5,2,6.17450727166667,NaN,20922.3590775,2,NaN,NaN,NaN
11,3,7,SyncTheta,32,1360_4Hz.avi,willow10_zero_4Hz.wav,willow,1,7.87922750000143,0,11,108,32,66,75,2,3,2,6.17450727166667,NaN,20930.7257434,2,NaN,NaN,NaN
11,4,7,SyncTheta,87,1142_4Hz.avi,ep3_zero_4Hz.wav,ep,3,4.06190680000145,0,11,87,86,106,25,1,12,2,6.17450727166667,NaN,20940.9924396,2,NaN,NaN,NaN
11,5,7,SyncTheta,93,1046_4Hz.avi,guitar18_zero_4Hz.wav,guitar,2,5.04172589999871,1,11,46,93,73,77,2,9,5,6.17450727166667,NaN,20947.3091238,2,NaN,NaN,NaN
11,6,7,SyncTheta,51,1331_4Hz.avi,synth47_zero_4Hz.wav,synth,3,10.4888565000001,0,11,71,51,89,109,2,1,5,6.17450727166667,NaN,20954.9425115,2,NaN,NaN,NaN
11,7,7,SyncTheta,25,1094_4Hz.avi,ep15_zero_4Hz.wav,ep,1,6.86444729999857,0,11,87,86,106,25,4,16,1,6.17450727166667,NaN,20967.3092117,2,NaN,NaN,NaN
11,8,7,SyncTheta,89,1393_4Hz.avi,synth41_zero_4Hz.wav,synth,3,7.20197630000257,1,11,109,71,89,51,3,2,2,6.17450727166667,NaN,20976.6592455,2,NaN,NaN,NaN
11,9,7,SyncTheta,73,1369_4Hz.avi,guitar19_zero_4Hz.wav,guitar,1,7.28613850000329,0,11,77,93,46,73,4,4,3,6.17450727166667,NaN,20986.2925825,2,NaN,NaN,NaN
11,10,7,SyncTheta,71,1076_4Hz.avi,synth21_zero_4Hz.wav,synth,2,3.84815430000162,1,11,89,71,109,51,2,6,4,6.17450727166667,NaN,20995.3759692,2,NaN,NaN,NaN
11,11,7,SyncTheta,109,1299_4Hz.avi,synth18_zero_4Hz.wav,synth,1,7.05032070000016,1,11,109,89,51,71,1,14,3,6.17450727166667,NaN,21001.7759661,2,NaN,NaN,NaN
11,12,7,SyncTheta,106,1113_4Hz.avi,ep29_zero_4Hz.wav,ep,3,3.48940429999857,0,11,106,86,87,25,1,10,3,6.17450727166667,NaN,21011.6759906,2,NaN,NaN,NaN
11,13,7,SyncTheta,75,1040_4Hz.avi,willow17_zero_4Hz.wav,willow,1,7.34265130000131,0,11,108,66,32,75,4,13,2,6.17450727166667,NaN,21018.2260542,2,NaN,NaN,NaN
11,14,7,SyncTheta,46,1210_4Hz.avi,guitar48_zero_4Hz.wav,guitar,4,8.61655599999722,0,11,93,73,46,77,3,11,4,6.17450727166667,NaN,21027.392703,2,NaN,NaN,NaN
11,15,7,SyncTheta,108,1415_4Hz.avi,willow3_zero_4Hz.wav,willow,4,10.8267594999998,0,11,66,32,108,75,3,8,2,6.17450727166667,NaN,21038.5427398,2,NaN,NaN,NaN
11,16,7,SyncTheta,77,1008_4Hz.avi,guitar42_zero_4Hz.wav,guitar,2,8.65304439999818,0,11,77,73,93,46,1,7,4,6.17450727166667,NaN,21052.126118,2,NaN,NaN,NaN
11,1,8,AsyncTheta,120,1365_4Hz.avi,willow21_oneeighty_4Hz.wav,willow,3,3.98404680000021,1,11,119,157,120,118,3,14,2,5.54511442166667,NaN,21267.9101262,2,NaN,NaN,NaN
11,2,8,AsyncTheta,123,1067_4Hz.avi,ep37_oneeighty_4Hz.wav,ep,2,4.83861149999939,0,11,123,176,117,132,1,3,3,5.54511442166667,NaN,21273.4434451,2,NaN,NaN,NaN
11,3,8,AsyncTheta,118,1020_4Hz.avi,willow22_oneeighty_4Hz.wav,willow,3,8.85522499999934,1,11,157,119,118,120,3,4,3,5.54511442166667,NaN,21280.9934629,2,NaN,NaN,NaN
11,4,8,AsyncTheta,117,1144_4Hz.avi,ep39_oneeighty_4Hz.wav,ep,4,4.77777050000077,1,11,123,176,132,117,4,15,3,5.54511442166667,NaN,21292.660164,2,NaN,NaN,NaN
11,5,8,AsyncTheta,146,1005_4Hz.avi,guitar14_oneeighty_4Hz.wav,guitar,1,7.25546290000057,0,11,115,112,146,172,3,12,1,5.54511442166667,NaN,21299.1268819,2,NaN,NaN,NaN
11,6,8,AsyncTheta,127,1411_4Hz.avi,synth28_oneeighty_4Hz.wav,synth,1,3.82565900000191,1,11,127,155,111,125,1,1,1,5.54511442166667,NaN,21308.7268897,2,NaN,NaN,NaN
11,7,8,AsyncTheta,176,1405_4Hz.avi,ep46_oneeighty_4Hz.wav,ep,2,4.01263660000041,0,11,132,123,117,176,4,16,3,5.54511442166667,NaN,21314.5102388,2,NaN,NaN,NaN
11,8,8,AsyncTheta,125,1050_4Hz.avi,synth36_oneeighty_4Hz.wav,synth,1,9.22348620000048,1,11,125,111,155,127,1,2,2,5.54511442166667,NaN,21320.5269151,2,NaN,NaN,NaN
11,9,8,AsyncTheta,115,1370_4Hz.avi,guitar9_oneeighty_4Hz.wav,guitar,4,6.77989390000221,0,11,172,115,112,146,2,5,3,5.54511442166667,NaN,21331.9603129,2,NaN,NaN,NaN
11,10,8,AsyncTheta,111,1390_4Hz.avi,synth3_oneeighty_4Hz.wav,synth,1,3.66942579999886,1,11,111,127,155,125,1,6,3,5.54511442166667,NaN,21340.0936833,2,NaN,NaN,NaN
11,11,8,AsyncTheta,155,1042_4Hz.avi,synth10_oneeighty_4Hz.wav,synth,2,4.0184889000011,1,11,111,155,127,125,2,8,3,5.54511442166667,NaN,21346.2603317,2,NaN,NaN,NaN
11,12,8,AsyncTheta,132,1356_4Hz.avi,ep30_oneeighty_4Hz.wav,ep,2,8.77187210000193,0,11,117,176,123,132,4,7,2,5.54511442166667,NaN,21352.7936943,2,NaN,NaN,NaN
11,13,8,AsyncTheta,157,1225_4Hz.avi,willow14_oneeighty_4Hz.wav,willow,4,4.89069810000001,0,11,118,157,120,119,2,11,2,5.54511442166667,NaN,21364.0437457,2,NaN,NaN,NaN
11,14,8,AsyncTheta,172,1350_4Hz.avi,guitar10_oneeighty_4Hz.wav,guitar,1,3.85042369999792,0,11,146,112,172,115,3,13,2,5.54511442166667,NaN,21372.1104062,2,NaN,NaN,NaN
11,15,8,AsyncTheta,119,1189_4Hz.avi,willow11_oneeighty_4Hz.wav,willow,3,8.31788030000098,0,11,119,118,157,120,1,9,2,5.54511442166667,NaN,21378.7604517,2,NaN,NaN,NaN
11,16,8,AsyncTheta,112,1388_4Hz.avi,guitar39_oneeighty_4Hz.wav,guitar,2,4.48411889999988,0,11,112,172,146,115,1,10,2,5.54511442166667,NaN,21389.1104887,2,NaN,NaN,NaN
11,1,9,SyncTheta,55,1044_4Hz.avi,willow4_zero_4Hz.wav,willow,2,7.87399700000242,0,11,48,22,55,92,3,16,2,5.58289808833333,20.10453564,21662.5778965,3,NaN,NaN,NaN
11,2,9,SyncTheta,65,1013_4Hz.avi,ep22_zero_4Hz.wav,ep,2,4.42080220000207,0,11,16,41,99,65,4,5,3,5.58289808833333,20.10453564,21672.0612533,3,NaN,NaN,NaN
11,3,9,SyncTheta,92,1030_4Hz.avi,willow23_zero_4Hz.wav,willow,3,3.35275339999862,0,11,22,55,48,92,4,1,3,5.58289808833333,20.10453564,21677.8612757,3,NaN,NaN,NaN
11,4,9,SyncTheta,99,1173_4Hz.avi,ep6_zero_4Hz.wav,ep,4,7.81455659999847,1,11,41,65,16,99,4,10,3,5.58289808833333,20.10453564,21684.311301,3,NaN,NaN,NaN
11,5,9,SyncTheta,59,1346_4Hz.avi,guitar33_zero_4Hz.wav,guitar,4,5.78456020000158,1,11,67,84,7,59,4,6,4,5.58289808833333,20.10453564,21694.4780177,3,NaN,NaN,NaN
11,6,9,SyncTheta,61,1207_4Hz.avi,synth46_zero_4Hz.wav,synth,3,3.36800960000255,1,11,70,35,61,95,3,3,4,5.58289808833333,20.10453564,21701.7113563,3,NaN,NaN,NaN
11,7,9,SyncTheta,41,1132_4Hz.avi,ep10_zero_4Hz.wav,ep,3,7.38599539999996,0,11,41,65,16,99,1,11,2,5.58289808833333,20.10453564,21707.7447512,3,NaN,NaN,NaN
11,8,9,SyncTheta,70,1093_4Hz.avi,synth6_zero_4Hz.wav,synth,1,5.87078580000161,0,11,35,61,95,70,4,7,3,5.58289808833333,20.10453564,21717.9947292,3,NaN,NaN,NaN
11,9,9,SyncTheta,7,1017_4Hz.avi,guitar47_zero_4Hz.wav,guitar,4,7.00569090000135,0,11,59,67,7,84,3,2,3,5.58289808833333,20.10453564,21726.9781038,3,NaN,NaN,NaN
11,10,9,SyncTheta,35,1039_4Hz.avi,synth5_zero_4Hz.wav,synth,2,5.02433680000104,0,11,61,70,95,35,4,14,3,5.58289808833333,20.10453564,21737.0947806,3,NaN,NaN,NaN
11,11,9,SyncTheta,95,1359_4Hz.avi,synth33_zero_4Hz.wav,synth,4,5.82911509999758,1,11,61,35,70,95,4,15,5,5.58289808833333,20.10453564,21744.6615176,3,NaN,NaN,NaN
11,12,9,SyncTheta,16,1442_4Hz.avi,ep34_zero_4Hz.wav,ep,3,5.35168909999993,0,11,16,41,65,99,1,9,2,5.58289808833333,20.10453564,21752.2948348,3,NaN,NaN,NaN
11,13,9,SyncTheta,48,1021_4Hz.avi,willow12_zero_4Hz.wav,willow,3,4.48371029999907,0,11,92,48,55,22,2,13,1,5.58289808833333,20.10453564,21760.0115449,3,NaN,NaN,NaN
11,14,9,SyncTheta,84,1294_4Hz.avi,guitar6_zero_4Hz.wav,guitar,2,8.21744730000137,0,11,7,67,84,59,3,12,4,5.58289808833333,20.10453564,21767.3449037,3,NaN,NaN,NaN
11,15,9,SyncTheta,22,1212_4Hz.avi,willow20_zero_4Hz.wav,willow,4,11.9589384999999,1,11,48,55,92,22,4,8,4,5.58289808833333,20.10453564,21777.9615722,3,NaN,NaN,NaN
11,16,9,SyncTheta,67,1310_4Hz.avi,guitar21_zero_4Hz.wav,guitar,4,7.75301180000315,1,11,84,59,7,67,4,4,3,5.58289808833333,20.10453564,21791.9950205,3,NaN,NaN,NaN
11,1,10,SyncDelta,42,1339_1.7Hz.avi,orch31_zero_1.7Hz.wav,orch,3,5.22022099999958,1,11,74,102,42,85,3,13,3,4.77849929333333,20.10453564,21960.8621256,3,NaN,NaN,NaN
11,2,10,SyncDelta,21,1112_1.7Hz.avi,acoustic32_zero_1.7Hz.wav,acoustic,4,4.55436890000055,0,11,47,39,21,60,3,3,5,4.77849929333333,20.10453564,21968.4954823,3,NaN,NaN,NaN
11,3,10,SyncDelta,74,1337_1.7Hz.avi,orch24_zero_1.7Hz.wav,orch,2,5.11558940000032,0,11,74,102,42,85,1,2,4,4.77849929333333,20.10453564,21974.4288341,3,NaN,NaN,NaN
11,4,10,SyncDelta,60,1249_1.7Hz.avi,acoustic20_zero_1.7Hz.wav,acoustic,2,9.12978459999795,0,11,21,39,47,60,4,14,4,4.77849929333333,20.10453564,21981.6788898,3,NaN,NaN,NaN
11,5,10,SyncDelta,62,1058_1.7Hz.avi,choir19_zero_1.7Hz.wav,choir,1,5.82007920000251,1,11,62,38,68,72,1,12,4,4.77849929333333,20.10453564,21993.9955589,3,NaN,NaN,NaN
11,6,10,SyncDelta,45,1203_1.7Hz.avi,dar2_zero_1.7Hz.wav,dar,2,8.91960029999973,0,11,45,80,40,56,1,4,5,4.77849929333333,20.10453564,22002.4456423,3,NaN,NaN,NaN
11,7,10,SyncDelta,47,1292_1.7Hz.avi,acoustic28_zero_1.7Hz.wav,acoustic,3,5.73454189999757,0,11,39,60,21,47,4,16,2,4.77849929333333,20.10453564,22014.0622923,3,NaN,NaN,NaN
11,8,10,SyncDelta,80,1082_1.7Hz.avi,dar15_zero_1.7Hz.wav,dar,4,4.89384940000309,0,11,80,40,45,56,1,5,2,4.77849929333333,20.10453564,22022.5123487,3,NaN,NaN,NaN
11,9,10,SyncDelta,72,1097_1.7Hz.avi,choir29_zero_1.7Hz.wav,choir,2,8.45889090000128,0,11,62,68,38,72,4,1,5,4.77849929333333,20.10453564,22029.0790461,3,NaN,NaN,NaN
11,10,10,SyncDelta,40,1239_1.7Hz.avi,dar6_zero_1.7Hz.wav,dar,3,2.914761,0,11,80,56,45,40,4,7,5,4.77849929333333,20.10453564,22040.3791555,3,NaN,NaN,NaN
11,11,10,SyncDelta,56,1063_1.7Hz.avi,dar16_zero_1.7Hz.wav,dar,1,6.49838050000108,1,11,56,80,40,45,1,8,1,4.77849929333333,20.10453564,22045.6457471,3,NaN,NaN,NaN
11,12,10,SyncDelta,39,1061_1.7Hz.avi,acoustic11_zero_1.7Hz.wav,acoustic,4,4.17496020000181,1,11,47,21,60,39,4,11,4,4.77849929333333,20.10453564,22053.9624179,3,NaN,NaN,NaN
11,13,10,SyncDelta,85,1383_1.7Hz.avi,orch23_zero_1.7Hz.wav,orch,1,3.18032060000041,0,11,42,74,85,102,3,9,5,4.77849929333333,20.10453564,22060.6791559,3,NaN,NaN,NaN
11,14,10,SyncDelta,68,1023_1.7Hz.avi,choir3_zero_1.7Hz.wav,choir,2,6.32958800000051,1,11,62,68,72,38,2,15,2,4.77849929333333,20.10453564,22067.2124541,3,NaN,NaN,NaN
11,15,10,SyncDelta,102,1012_1.7Hz.avi,orch18_zero_1.7Hz.wav,orch,3,4.90630189999865,0,11,42,102,74,85,2,6,5,4.77849929333333,20.10453564,22075.9625172,3,NaN,NaN,NaN
11,16,10,SyncDelta,38,1184_1.7Hz.avi,choir33_zero_1.7Hz.wav,choir,3,3.47387529999833,1,11,72,68,38,62,3,10,1,4.77849929333333,20.10453564,22083.1125307,3,NaN,NaN,NaN
11,1,11,AsyncTheta,153,1157_4Hz.avi,willow1_oneeighty_4Hz.wav,willow,2,4.49366949999967,1,11,171,153,178,152,2,16,4,4.72578605333333,20.10453564,22242.2630186,3,NaN,NaN,NaN
11,2,11,AsyncTheta,189,1051_4Hz.avi,ep14_oneeighty_4Hz.wav,ep,2,3.62039849999928,1,11,166,189,180,150,2,5,5,4.72578605333333,20.10453564,22248.7796766,3,NaN,NaN,NaN
11,3,11,AsyncTheta,171,1280_4Hz.avi,willow19_oneeighty_4Hz.wav,willow,4,4.00471640000251,0,11,153,171,152,178,2,2,2,4.72578605333333,20.10453564,22254.7963842,3,NaN,NaN,NaN
11,4,11,AsyncTheta,180,1006_4Hz.avi,ep4_oneeighty_4Hz.wav,ep,3,3.71812359999967,1,11,166,150,180,189,3,10,3,4.72578605333333,20.10453564,22261.7964114,3,NaN,NaN,NaN
11,5,11,AsyncTheta,168,1204_4Hz.avi,guitar36_oneeighty_4Hz.wav,guitar,2,6.29289430000063,0,11,168,183,185,164,1,9,4,4.72578605333333,20.10453564,22268.1297891,3,NaN,NaN,NaN
11,6,11,AsyncTheta,131,1366_4Hz.avi,synth34_oneeighty_4Hz.wav,synth,2,9.04616199999873,0,11,135,186,184,131,4,3,2,4.72578605333333,20.10453564,22277.3464346,3,NaN,NaN,NaN
11,7,11,AsyncTheta,150,1394_4Hz.avi,ep11_oneeighty_4Hz.wav,ep,2,3.99154060000001,0,11,150,189,166,180,1,11,2,4.72578605333333,20.10453564,22289.729829,3,NaN,NaN,NaN
11,8,11,AsyncTheta,186,1031_4Hz.avi,synth7_oneeighty_4Hz.wav,synth,2,3.93596609999804,0,11,135,131,184,186,4,8,3,4.72578605333333,20.10453564,22296.7964954,3,NaN,NaN,NaN
11,9,11,AsyncTheta,164,1087_4Hz.avi,guitar17_oneeighty_4Hz.wav,guitar,3,4.24136010000075,1,11,185,168,164,183,3,1,5,4.72578605333333,20.10453564,22303.7965681,3,NaN,NaN,NaN
11,10,11,AsyncTheta,135,1154_4Hz.avi,synth38_oneeighty_4Hz.wav,synth,2,6.78154119999817,1,11,184,135,131,186,2,13,4,4.72578605333333,20.10453564,22310.6299474,3,NaN,NaN,NaN
11,11,11,AsyncTheta,184,1052_4Hz.avi,synth40_oneeighty_4Hz.wav,synth,4,8.24636250000185,1,11,131,135,186,184,4,14,3,4.72578605333333,20.10453564,22320.0799687,3,NaN,NaN,NaN
11,12,11,AsyncTheta,166,1227_4Hz.avi,ep5_oneeighty_4Hz.wav,ep,1,7.16429070000231,0,11,150,180,189,166,4,6,2,4.72578605333333,20.10453564,22330.3966596,3,NaN,NaN,NaN
11,13,11,AsyncTheta,152,1445_4Hz.avi,willow2_oneeighty_4Hz.wav,willow,4,4.60091649999958,1,11,153,178,171,152,4,12,3,4.72578605333333,20.10453564,22339.5300164,3,NaN,NaN,NaN
11,14,11,AsyncTheta,185,1131_4Hz.avi,guitar45_oneeighty_4Hz.wav,guitar,4,4.91236240000217,1,11,168,183,164,185,4,15,2,4.72578605333333,20.10453564,22346.930016,3,NaN,NaN,NaN
11,15,11,AsyncTheta,178,1057_4Hz.avi,willow9_oneeighty_4Hz.wav,willow,2,3.26034699999946,0,11,178,152,171,153,1,4,3,4.72578605333333,20.10453564,22354.5633643,3,NaN,NaN,NaN
11,16,11,AsyncTheta,183,1374_4Hz.avi,guitar16_oneeighty_4Hz.wav,guitar,1,9.06936879999921,0,11,185,168,183,164,3,7,2,4.72578605333333,20.10453564,22361.1967187,3,NaN,NaN,NaN
11,1,12,NoFlicker,143,1127_half_amp.avi,orch11_half_amp.wav,orch,3,4.36259069999869,1,11,188,174,143,158,3,11,5,4.40677097166667,20.10453564,22520.4472307,3,NaN,NaN,NaN
11,2,12,NoFlicker,175,1103_half_amp.avi,acoustic10_half_amp.wav,acoustic,3,4.28135540000221,1,11,169,133,175,107,3,2,2,4.40677097166667,20.10453564,22526.8305219,3,NaN,NaN,NaN
11,3,12,NoFlicker,158,1206_half_amp.avi,orch6_half_amp.wav,orch,4,5.83806320000076,1,11,143,188,174,158,4,3,2,4.40677097166667,20.10453564,22532.8139304,3,NaN,NaN,NaN
11,4,12,NoFlicker,133,1341_half_amp.avi,acoustic14_half_amp.wav,acoustic,1,5.04649060000156,0,11,107,133,169,175,2,7,4,4.40677097166667,20.10453564,22540.3472332,3,NaN,NaN,NaN
11,5,12,NoFlicker,139,1192_half_amp.avi,choir5_half_amp.wav,choir,1,4.22889419999774,1,11,139,160,121,181,1,12,5,4.40677097166667,20.10453564,22547.3972537,3,NaN,NaN,NaN
11,6,12,NoFlicker,126,1298_half_amp.avi,dar9_half_amp.wav,dar,2,4.70432979999896,0,11,187,147,126,162,3,4,4,4.40677097166667,20.10453564,22554.1472786,3,NaN,NaN,NaN
11,7,12,NoFlicker,107,1265_half_amp.avi,acoustic16_half_amp.wav,acoustic,3,6.19321209999907,1,11,169,175,107,133,3,14,1,4.40677097166667,20.10453564,22561.3973006,3,NaN,NaN,NaN
11,8,12,NoFlicker,147,1304_half_amp.avi,dar10_half_amp.wav,dar,4,3.50789020000229,1,11,187,126,162,147,4,8,5,4.40677097166667,20.10453564,22570.0140153,3,NaN,NaN,NaN
11,9,12,NoFlicker,160,1421_half_amp.avi,choir13_half_amp.wav,choir,1,4.15733109999928,1,11,160,139,181,121,1,1,2,4.40677097166667,20.10453564,22576.730708,3,NaN,NaN,NaN
11,10,12,NoFlicker,162,1358_half_amp.avi,dar7_half_amp.wav,dar,4,3.81669980000152,1,11,187,126,147,162,4,15,4,4.40677097166667,20.10453564,22583.6640575,3,NaN,NaN,NaN
11,11,12,NoFlicker,187,1164_half_amp.avi,dar12_half_amp.wav,dar,2,5.10043129999758,1,11,147,187,126,162,2,16,5,4.40677097166667,20.10453564,22590.3807114,3,NaN,NaN,NaN
11,12,12,NoFlicker,169,1083_half_amp.avi,acoustic43_half_amp.wav,acoustic,1,4.78000800000154,0,11,175,169,133,107,2,5,5,4.40677097166667,20.10453564,22598.1307684,3,NaN,NaN,NaN
11,13,12,NoFlicker,174,1119_half_amp.avi,orch45_half_amp.wav,orch,1,5.07217069999751,1,11,174,143,158,188,1,9,3,4.40677097166667,20.10453564,22605.5474274,3,NaN,NaN,NaN
11,14,12,NoFlicker,181,1168_half_amp.avi,choir1_half_amp.wav,choir,1,5.05554620000112,1,11,181,121,160,139,1,13,5,4.40677097166667,20.10453564,22612.8974503,3,NaN,NaN,NaN
11,15,12,NoFlicker,188,1036_half_amp.avi,orch26_half_amp.wav,orch,1,5.21520579999924,0,11,158,143,174,188,4,6,4,4.40677097166667,20.10453564,22619.9141468,3,NaN,NaN,NaN
11,16,12,NoFlicker,121,1354_half_amp.avi,choir22_half_amp.wav,choir,2,7.34770700000081,1,11,160,121,139,181,2,10,4,4.40677097166667,20.10453564,22627.5142102,3,NaN,NaN,NaN
