ParticipantID,TrialNumber,BlockNumber,Condition,ClipID,VideoFile,SoundFile,SoundCategory,Response,RT,Accuracy,ConditionID,Frame1,Frame2,Frame3,Frame4,CorrectKey,EncodingPosition,Rating,BlockDuration,ExperimentDuration,MemoryTestOnset,RunNumber,Age,Handedness,Sex
8,1,1,NoFlicker,21,1112_half_amp.avi,acoustic32_half_amp.wav,acoustic,3,10.7395892000004,0,8,21,4,1,58,1,5,1,5.99799032166667,NaN,7975.7881757,1,NaN,NaN,NaN
8,2,1,NoFlicker,10,1179_half_amp.avi,choir4_half_amp.wav,choir,2,3.63109660000009,1,8,38,10,11,69,2,2,4,5.99799032166667,NaN,7989.0715877,1,NaN,NaN,NaN
8,3,1,NoFlicker,38,1184_half_amp.avi,choir33_half_amp.wav,choir,1,4.60059799999999,0,8,69,10,38,11,3,7,1,5.99799032166667,NaN,7995.1216095,1,NaN,NaN,NaN
8,4,1,NoFlicker,2,1431_half_amp.avi,dar24_half_amp.wav,dar,2,4.42296649999935,0,8,40,14,2,64,3,9,5,5.99799032166667,NaN,8001.3049698,1,NaN,NaN,NaN
8,5,1,NoFlicker,11,1448_half_amp.avi,choir36_half_amp.wav,choir,1,8.46647200000007,1,8,11,10,69,38,1,11,4,5.99799032166667,NaN,8007.8717037,1,NaN,NaN,NaN
8,6,1,NoFlicker,1,1064_half_amp.avi,acoustic12_half_amp.wav,acoustic,2,7.0683209000008,0,8,1,21,58,4,1,1,3,5.99799032166667,NaN,8018.9550598,1,NaN,NaN,NaN
8,7,1,NoFlicker,40,1239_half_amp.avi,dar6_half_amp.wav,dar,2,6.92671620000056,0,8,14,64,40,2,3,8,2,5.99799032166667,NaN,8028.1217651,1,NaN,NaN,NaN
8,8,1,NoFlicker,42,1339_half_amp.avi,orch31_half_amp.wav,orch,4,3.87810219999938,1,8,91,28,17,42,4,6,2,5.99799032166667,NaN,8038.2551301,1,NaN,NaN,NaN
8,9,1,NoFlicker,17,1162_half_amp.avi,orch1_half_amp.wav,orch,1,3.82158359999994,1,8,17,91,42,28,1,12,4,5.99799032166667,NaN,8044.7717862,1,NaN,NaN,NaN
8,10,1,NoFlicker,28,1148_half_amp.avi,orch19_half_amp.wav,orch,1,4.86999250000008,0,8,91,42,17,28,4,14,4,5.99799032166667,NaN,8051.4718338,1,NaN,NaN,NaN
8,11,1,NoFlicker,91,1340_half_amp.avi,orch46_half_amp.wav,orch,3,7.79745660000026,1,8,28,17,91,42,3,4,1,5.99799032166667,NaN,8058.8385118,1,NaN,NaN,NaN
8,12,1,NoFlicker,14,1416_half_amp.avi,dar1_half_amp.wav,dar,1,6.74905419999959,1,8,14,40,64,2,1,10,2,5.99799032166667,NaN,8068.1385533,1,NaN,NaN,NaN
8,13,1,NoFlicker,4,1167_half_amp.avi,acoustic37_half_amp.wav,acoustic,4,4.81409230000008,0,8,1,4,21,58,2,16,5,5.99799032166667,NaN,8076.6552769,1,NaN,NaN,NaN
8,14,1,NoFlicker,64,1098_half_amp.avi,dar11_half_amp.wav,dar,1,4.97950320000018,1,8,64,2,14,40,1,15,1,5.99799032166667,NaN,8084.6053163,1,NaN,NaN,NaN
8,15,1,NoFlicker,58,1323_half_amp.avi,acoustic29_half_amp.wav,acoustic,3,5.91766129999996,1,8,4,21,58,1,3,3,5,5.99799032166667,NaN,8091.8886399,1,NaN,NaN,NaN
8,16,1,NoFlicker,69,1216_half_amp.avi,choir32_half_amp.wav,choir,2,4.87817140000061,1,8,11,69,38,10,2,13,3,5.99799032166667,NaN,8100.6220201,1,NaN,NaN,NaN
8,1,2,AsyncTheta,16,1442_4Hz.avi,ep34_oneeighty_4Hz.wav,ep,3,6.12847130000046,1,8,25,41,16,87,3,8,1,4.98873132166667,NaN,8284.9728603,1,NaN,NaN,NaN
8,2,2,AsyncTheta,46,1210_4Hz.avi,guitar48_oneeighty_4Hz.wav,guitar,2,7.7882626999999,0,8,77,7,59,46,4,6,1,4.98873132166667,NaN,8294.2395171,1,NaN,NaN,NaN
8,3,2,AsyncTheta,77,1008_4Hz.avi,guitar42_oneeighty_4Hz.wav,guitar,1,6.35764740000013,0,8,59,46,7,77,4,9,3,4.98873132166667,NaN,8304.222911,1,NaN,NaN,NaN
8,4,2,AsyncTheta,51,1331_4Hz.avi,synth47_oneeighty_4Hz.wav,synth,2,2.93538350000017,0,8,51,61,35,89,1,4,2,4.98873132166667,NaN,8313.6395571,1,NaN,NaN,NaN
8,5,2,AsyncTheta,7,1017_4Hz.avi,guitar47_oneeighty_4Hz.wav,guitar,3,5.84131700000034,1,8,46,59,7,77,3,12,4,4.98873132166667,NaN,8318.3729174,1,NaN,NaN,NaN
8,6,2,AsyncTheta,25,1094_4Hz.avi,ep15_oneeighty_4Hz.wav,ep,3,3.85244579999926,1,8,16,87,25,41,3,5,4,4.98873132166667,NaN,8326.4063138,1,NaN,NaN,NaN
8,7,2,AsyncTheta,61,1207_4Hz.avi,synth46_oneeighty_4Hz.wav,synth,4,4.12378360000002,1,8,89,35,51,61,4,2,4,4.98873132166667,NaN,8332.9396408,1,NaN,NaN,NaN
8,8,2,AsyncTheta,75,1040_4Hz.avi,willow17_oneeighty_4Hz.wav,willow,3,4.7956221000004,0,8,32,75,48,22,2,3,5,4.98873132166667,NaN,8339.1730004,1,NaN,NaN,NaN
8,9,2,AsyncTheta,32,1360_4Hz.avi,willow10_oneeighty_4Hz.wav,willow,1,7.84742950000145,0,8,48,22,75,32,4,11,3,4.98873132166667,NaN,8347.1397009,1,NaN,NaN,NaN
8,10,2,AsyncTheta,48,1021_4Hz.avi,willow12_oneeighty_4Hz.wav,willow,4,5.30681129999903,0,8,22,48,32,75,2,13,2,4.98873132166667,NaN,8356.6064107,1,NaN,NaN,NaN
8,11,2,AsyncTheta,22,1212_4Hz.avi,willow20_oneeighty_4Hz.wav,willow,3,3.56064940000033,0,8,22,75,32,48,1,1,4,4.98873132166667,NaN,8364.656473,1,NaN,NaN,NaN
8,12,2,AsyncTheta,35,1039_4Hz.avi,synth5_oneeighty_4Hz.wav,synth,3,4.65344170000026,0,8,89,51,61,35,4,15,4,4.98873132166667,NaN,8370.8064712,1,NaN,NaN,NaN
8,13,2,AsyncTheta,41,1132_4Hz.avi,ep10_oneeighty_4Hz.wav,ep,4,5.97184169999855,1,8,87,25,16,41,4,10,4,4.98873132166667,NaN,8377.0565208,1,NaN,NaN,NaN
8,14,2,AsyncTheta,89,1393_4Hz.avi,synth41_oneeighty_4Hz.wav,synth,1,7.39748580000014,0,8,51,35,89,61,3,16,1,4.98873132166667,NaN,8384.7898573,1,NaN,NaN,NaN
8,15,2,AsyncTheta,87,1142_4Hz.avi,ep3_oneeighty_4Hz.wav,ep,1,3.7250866000013,1,8,87,41,25,16,1,7,2,4.98873132166667,NaN,8394.4065676,1,NaN,NaN,NaN
8,16,2,AsyncTheta,59,1346_4Hz.avi,guitar33_oneeighty_4Hz.wav,guitar,4,3.55368459999954,1,8,77,7,46,59,4,14,3,4.98873132166667,NaN,8401.3565917,1,NaN,NaN,NaN
8,1,3,SyncTheta,113,1037_4Hz.avi,acoustic23_zero_4Hz.wav,acoustic,2,9.56237359999977,0,8,104,133,169,113,4,15,5,4.745684925,NaN,8559.1739125,1,NaN,NaN,NaN
8,2,3,SyncTheta,97,1368_4Hz.avi,choir30_zero_4Hz.wav,choir,1,6.71288319999985,0,8,160,97,124,139,2,5,4,4.745684925,NaN,8571.5239708,1,NaN,NaN,NaN
8,3,3,SyncTheta,139,1192_4Hz.avi,choir5_zero_4Hz.wav,choir,1,5.79087470000013,1,8,139,160,97,124,1,6,1,4.745684925,NaN,8581.1573749,1,NaN,NaN,NaN
8,4,3,SyncTheta,116,1420_4Hz.avi,dar18_zero_4Hz.wav,dar,2,6.26737710000089,1,8,162,116,147,136,2,9,2,4.745684925,NaN,8589.8074052,1,NaN,NaN,NaN
8,5,3,SyncTheta,160,1421_4Hz.avi,choir13_zero_4Hz.wav,choir,1,6.20531280000068,0,8,139,97,124,160,4,8,4,4.745684925,NaN,8598.3407433,1,NaN,NaN,NaN
8,6,3,SyncTheta,133,1341_4Hz.avi,acoustic14_zero_4Hz.wav,acoustic,2,3.59352370000124,1,8,104,133,169,113,2,3,5,4.745684925,NaN,8606.6908209,1,NaN,NaN,NaN
8,7,3,SyncTheta,147,1304_4Hz.avi,dar10_zero_4Hz.wav,dar,4,3.35707300000104,1,8,162,136,116,147,4,2,4,4.745684925,NaN,8612.1741331,1,NaN,NaN,NaN
8,8,3,SyncTheta,158,1206_4Hz.avi,orch6_zero_4Hz.wav,orch,2,8.9852391000004,0,8,158,145,141,174,1,4,1,4.745684925,NaN,8616.9241545,1,NaN,NaN,NaN
8,9,3,SyncTheta,141,1401_4Hz.avi,orch12_zero_4Hz.wav,orch,4,8.10987569999998,1,8,158,174,145,141,4,11,5,4.745684925,NaN,8629.1408687,1,NaN,NaN,NaN
8,10,3,SyncTheta,174,1119_4Hz.avi,orch45_zero_4Hz.wav,orch,4,6.54538299999876,1,8,145,158,141,174,4,14,3,4.745684925,NaN,8638.9075883,1,NaN,NaN,NaN
8,11,3,SyncTheta,145,1352_4Hz.avi,orch39_zero_4Hz.wav,orch,1,6.63448470000003,0,8,174,141,158,145,4,1,4,4.745684925,NaN,8648.6242874,1,NaN,NaN,NaN
8,12,3,SyncTheta,136,1175_4Hz.avi,dar4_zero_4Hz.wav,dar,2,5.00838119999935,0,8,147,162,116,136,4,10,4,4.745684925,NaN,8657.9243296,1,NaN,NaN,NaN
8,13,3,SyncTheta,169,1083_4Hz.avi,acoustic43_zero_4Hz.wav,acoustic,2,3.31906469999922,0,8,104,133,169,113,3,16,5,4.745684925,NaN,8665.9743574,1,NaN,NaN,NaN
8,14,3,SyncTheta,162,1358_4Hz.avi,dar7_zero_4Hz.wav,dar,3,5.18565490000037,0,8,162,116,136,147,1,13,4,4.745684925,NaN,8670.8077149,1,NaN,NaN,NaN
8,15,3,SyncTheta,104,1111_4Hz.avi,acoustic31_zero_4Hz.wav,acoustic,3,4.04293390000021,0,8,133,113,169,104,4,7,3,4.745684925,NaN,8679.3411142,1,NaN,NaN,NaN
8,16,3,SyncTheta,124,1183_4Hz.avi,choir24_zero_4Hz.wav,choir,4,3.42343789999904,0,8,97,124,139,160,2,12,1,4.745684925,NaN,8686.307778,1,NaN,NaN,NaN
8,1,4,SyncDelta,123,1067_1.7Hz.avi,ep37_zero_1.7Hz.wav,ep,3,6.503999999999,1,8,180,138,123,132,3,5,4,4.440849935,NaN,8838.6250801,1,NaN,NaN,NaN
8,2,4,SyncDelta,183,1374_1.7Hz.avi,guitar16_zero_1.7Hz.wav,guitar,1,5.59412639999937,1,8,183,151,115,146,1,2,2,4.440849935,NaN,8847.7584475,1,NaN,NaN,NaN
8,3,4,SyncDelta,115,1370_1.7Hz.avi,guitar9_zero_1.7Hz.wav,guitar,3,6.85051220000059,0,8,115,151,146,183,1,3,3,4.440849935,NaN,8856.4584856,1,NaN,NaN,NaN
8,4,4,SyncDelta,125,1050_1.7Hz.avi,synth36_zero_1.7Hz.wav,synth,3,5.56864069999938,1,8,128,127,125,184,3,7,2,4.440849935,NaN,8865.6419514,1,NaN,NaN,NaN
8,5,4,SyncDelta,151,1259_1.7Hz.avi,guitar43_zero_1.7Hz.wav,guitar,2,8.51086049999867,1,8,146,151,115,183,2,14,5,4.440849935,NaN,8874.0586328,1,NaN,NaN,NaN
8,6,4,SyncDelta,138,1149_1.7Hz.avi,ep2_zero_1.7Hz.wav,ep,4,3.51040229999853,0,8,180,123,138,132,3,1,5,4.440849935,NaN,8885.5753557,1,NaN,NaN,NaN
8,7,4,SyncDelta,127,1411_1.7Hz.avi,synth28_zero_1.7Hz.wav,synth,2,2.13297179999972,1,8,184,127,125,128,2,6,5,4.440849935,NaN,8892.2919655,1,NaN,NaN,NaN
8,8,4,SyncDelta,120,1365_1.7Hz.avi,willow21_zero_1.7Hz.wav,willow,2,4.66601229999833,1,8,130,120,119,171,2,11,5,4.440849935,NaN,8897.6586607,1,NaN,NaN,NaN
8,9,4,SyncDelta,171,1280_1.7Hz.avi,willow19_zero_1.7Hz.wav,willow,4,7.72634889999972,0,8,171,120,130,119,1,13,4,4.440849935,NaN,8905.3253827,1,NaN,NaN,NaN
8,10,4,SyncDelta,119,1189_1.7Hz.avi,willow11_zero_1.7Hz.wav,willow,2,2.66352229999939,0,8,171,130,119,120,3,15,2,4.440849935,NaN,8914.6754247,1,NaN,NaN,NaN
8,11,4,SyncDelta,130,1081_1.7Hz.avi,willow5_zero_1.7Hz.wav,willow,3,2.68191680000018,1,8,119,171,130,120,3,10,5,4.440849935,NaN,8919.0587745,1,NaN,NaN,NaN
8,12,4,SyncDelta,128,1269_1.7Hz.avi,synth14_zero_1.7Hz.wav,synth,1,4.79049990000021,1,8,128,184,127,125,1,8,1,4.440849935,NaN,8924.7921505,1,NaN,NaN,NaN
8,13,4,SyncDelta,180,1006_1.7Hz.avi,ep4_zero_1.7Hz.wav,ep,1,3.16034000000036,1,8,180,123,132,138,1,9,2,4.440849935,NaN,8932.3421304,1,NaN,NaN,NaN
8,14,4,SyncDelta,184,1052_1.7Hz.avi,synth40_zero_1.7Hz.wav,synth,3,4.86221210000076,1,8,125,127,184,128,3,12,4,4.440849935,NaN,8938.7921694,1,NaN,NaN,NaN
8,15,4,SyncDelta,132,1356_1.7Hz.avi,ep30_zero_1.7Hz.wav,ep,2,3.41017439999996,1,8,180,132,123,138,2,4,5,4.440849935,NaN,8945.8922261,1,NaN,NaN,NaN
8,16,4,SyncDelta,146,1005_1.7Hz.avi,guitar14_zero_1.7Hz.wav,guitar,1,4.07780869999988,0,8,115,146,151,183,2,16,1,4.440849935,NaN,8952.1922148,1,NaN,NaN,NaN
8,1,5,SyncTheta,148,1121_4Hz.avi,acoustic26_zero_4Hz.wav,acoustic,1,3.78721460000088,0,8,83,79,190,148,4,12,4,4.70995264,NaN,9431.727416,2,NaN,NaN,NaN
8,2,5,SyncTheta,78,1301_4Hz.avi,choir11_zero_4Hz.wav,choir,2,6.8275502000015,1,8,182,78,159,76,2,1,2,4.70995264,NaN,9438.4440831,2,NaN,NaN,NaN
8,3,5,SyncTheta,159,1091_4Hz.avi,choir8_zero_4Hz.wav,choir,3,3.96292299999914,1,8,78,182,159,76,3,7,2,4.70995264,NaN,9446.8107798,2,NaN,NaN,NaN
8,4,5,SyncTheta,103,1084_4Hz.avi,dar20_zero_4Hz.wav,dar,1,3.25976330000049,1,8,103,82,191,154,1,5,1,4.70995264,NaN,9453.277506,2,NaN,NaN,NaN
8,5,5,SyncTheta,182,1277_4Hz.avi,choir39_zero_4Hz.wav,choir,2,3.30299469999954,0,8,182,76,78,159,1,13,5,4.70995264,NaN,9458.1941659,2,NaN,NaN,NaN
8,6,5,SyncTheta,190,1427_4Hz.avi,acoustic46_zero_4Hz.wav,acoustic,4,4.11553689999892,0,8,148,190,79,83,2,9,3,4.70995264,NaN,9464.8275164,2,NaN,NaN,NaN
8,7,5,SyncTheta,154,1074_4Hz.avi,dar5_zero_4Hz.wav,dar,2,4.12493039999936,1,8,103,154,191,82,2,2,4,4.70995264,NaN,9472.3442722,2,NaN,NaN,NaN
8,8,5,SyncTheta,134,1026_4Hz.avi,orch16_zero_4Hz.wav,orch,2,4.28182709999965,1,8,165,134,110,192,2,4,5,4.70995264,NaN,9479.477661,2,NaN,NaN,NaN
8,9,5,SyncTheta,192,1231_4Hz.avi,orch32_zero_4Hz.wav,orch,4,4.32487800000126,0,8,192,110,165,134,1,6,5,4.70995264,NaN,9486.5442775,2,NaN,NaN,NaN
8,10,5,SyncTheta,110,1443_4Hz.avi,orch3_zero_4Hz.wav,orch,2,3.85833610000009,1,8,192,110,165,134,2,11,5,4.70995264,NaN,9493.277633,2,NaN,NaN,NaN
8,11,5,SyncTheta,165,1410_4Hz.avi,orch43_zero_4Hz.wav,orch,3,3.31290249999984,0,8,110,165,192,134,2,3,4,4.70995264,NaN,9500.0443404,2,NaN,NaN,NaN
8,12,5,SyncTheta,82,1449_4Hz.avi,dar17_zero_4Hz.wav,dar,1,3.50631139999859,0,8,191,154,82,103,3,8,2,4.70995264,NaN,9504.8110147,2,NaN,NaN,NaN
8,13,5,SyncTheta,79,1071_4Hz.avi,acoustic17_zero_4Hz.wav,acoustic,3,3.23454400000082,0,8,190,79,83,148,2,14,5,4.70995264,NaN,9510.7943793,2,NaN,NaN,NaN
8,14,5,SyncTheta,191,1314_4Hz.avi,dar19_zero_4Hz.wav,dar,3,4.26640269999916,0,8,154,103,82,191,4,15,2,4.70995264,NaN,9515.5443992,2,NaN,NaN,NaN
8,15,5,SyncTheta,83,1139_4Hz.avi,acoustic27_zero_4Hz.wav,acoustic,1,4.57838950000041,0,8,148,79,83,190,3,10,4,4.70995264,NaN,9522.0444259,2,NaN,NaN,NaN
8,16,5,SyncTheta,76,1293_4Hz.avi,choir23_zero_4Hz.wav,choir,3,3.28342920000068,1,8,78,159,76,182,3,16,1,4.70995264,NaN,9528.4444438,2,NaN,NaN,NaN
8,1,6,AsyncTheta,86,1278_4Hz.avi,ep35_oneeighty_4Hz.wav,ep,2,4.69986079999944,1,8,101,86,6,65,2,11,2,4.535642015,NaN,9689.095147,2,NaN,NaN,NaN
8,2,6,AsyncTheta,3,1156_4Hz.avi,guitar31_oneeighty_4Hz.wav,guitar,4,5.07590000000164,0,8,3,67,73,90,1,3,2,4.535642015,NaN,9696.795148,2,NaN,NaN,NaN
8,3,6,AsyncTheta,73,1369_4Hz.avi,guitar19_oneeighty_4Hz.wav,guitar,2,6.98255659999995,1,8,3,73,67,90,2,14,4,4.535642015,NaN,9704.0952004,2,NaN,NaN,NaN
8,4,6,AsyncTheta,100,1107_4Hz.avi,synth23_oneeighty_4Hz.wav,synth,2,5.8251135999999,0,8,8,70,100,71,3,4,4,4.535642015,NaN,9713.3452122,2,NaN,NaN,NaN
8,5,6,AsyncTheta,67,1310_4Hz.avi,guitar21_oneeighty_4Hz.wav,guitar,1,5.93477779999921,0,8,3,67,90,73,2,15,5,4.535642015,NaN,9721.4619077,2,NaN,NaN,NaN
8,6,6,AsyncTheta,6,1007_4Hz.avi,ep8_oneeighty_4Hz.wav,ep,4,3.00180100000034,1,8,86,65,101,6,4,5,5,4.535642015,NaN,9729.061973,2,NaN,NaN,NaN
8,7,6,AsyncTheta,70,1093_4Hz.avi,synth6_oneeighty_4Hz.wav,synth,3,5.32941310000024,0,8,70,100,71,8,1,1,4,4.535642015,NaN,9735.0453007,2,NaN,NaN,NaN
8,8,6,AsyncTheta,66,1215_4Hz.avi,willow18_oneeighty_4Hz.wav,willow,1,6.88695840000037,0,8,18,94,66,55,3,7,1,4.535642015,NaN,9743.1786798,2,NaN,NaN,NaN
8,9,6,AsyncTheta,18,1101_4Hz.avi,willow13_oneeighty_4Hz.wav,willow,3,4.41945159999887,0,8,94,55,66,18,4,8,2,4.535642015,NaN,9751.8287041,2,NaN,NaN,NaN
8,10,6,AsyncTheta,55,1044_4Hz.avi,willow4_oneeighty_4Hz.wav,willow,2,3.38512400000036,1,8,94,55,66,18,2,10,5,4.535642015,NaN,9759.4620717,2,NaN,NaN,NaN
8,11,6,AsyncTheta,94,1109_4Hz.avi,willow6_oneeighty_4Hz.wav,willow,3,6.24738039999829,0,8,55,94,66,18,2,2,5,4.535642015,NaN,9764.4954503,2,NaN,NaN,NaN
8,12,6,AsyncTheta,8,1252_4Hz.avi,synth25_oneeighty_4Hz.wav,synth,4,3.05094939999981,0,8,71,8,70,100,2,9,5,4.535642015,NaN,9773.5288269,2,NaN,NaN,NaN
8,13,6,AsyncTheta,101,1295_4Hz.avi,ep40_oneeighty_4Hz.wav,ep,1,3.53864419999991,0,8,86,65,6,101,4,13,3,4.535642015,NaN,9778.1954761,2,NaN,NaN,NaN
8,14,6,AsyncTheta,71,1076_4Hz.avi,synth21_oneeighty_4Hz.wav,synth,4,4.94605020000017,0,8,8,71,70,100,2,12,1,4.535642015,NaN,9783.9788695,2,NaN,NaN,NaN
8,15,6,AsyncTheta,65,1013_4Hz.avi,ep22_oneeighty_4Hz.wav,ep,3,5.06125299999985,0,8,86,65,6,101,2,6,4,4.535642015,NaN,9792.1955682,2,NaN,NaN,NaN
8,16,6,AsyncTheta,90,1273_4Hz.avi,guitar23_oneeighty_4Hz.wav,guitar,4,3.45139050000034,0,8,3,73,90,67,3,16,5,4.535642015,NaN,9800.5122415,2,NaN,NaN,NaN
8,1,7,SyncDelta,150,1394_1.7Hz.avi,ep11_zero_1.7Hz.wav,ep,4,3.49830959999963,0,8,144,166,150,189,3,7,4,4.06118237,NaN,9943.5295066,2,NaN,NaN,NaN
8,2,7,SyncDelta,164,1087_1.7Hz.avi,guitar17_zero_1.7Hz.wav,guitar,3,3.79182399999991,1,8,161,185,164,168,3,8,5,4.06118237,NaN,9948.7128796,2,NaN,NaN,NaN
8,3,7,SyncDelta,161,1433_1.7Hz.avi,guitar2_zero_1.7Hz.wav,guitar,4,3.36153870000089,0,8,185,161,164,168,2,9,4,4.06118237,NaN,9955.6628809,2,NaN,NaN,NaN
8,4,7,SyncDelta,129,1286_1.7Hz.avi,synth30_zero_1.7Hz.wav,synth,3,4.63497429999916,1,8,186,131,129,135,3,10,5,4.06118237,NaN,9962.2629094,2,NaN,NaN,NaN
8,5,7,SyncDelta,185,1131_1.7Hz.avi,guitar45_zero_1.7Hz.wav,guitar,1,5.22232360000089,1,8,185,168,164,161,1,11,5,4.06118237,NaN,9969.8463003,2,NaN,NaN,NaN
8,6,7,SyncDelta,144,1255_1.7Hz.avi,ep28_zero_1.7Hz.wav,ep,3,3.67794589999903,0,8,150,189,166,144,4,1,1,4.06118237,NaN,9977.2463358,2,NaN,NaN,NaN
8,7,7,SyncDelta,131,1366_1.7Hz.avi,synth34_zero_1.7Hz.wav,synth,3,3.66884430000027,0,8,186,131,135,129,2,3,3,4.06118237,NaN,9983.5296696,2,NaN,NaN,NaN
8,8,7,SyncDelta,149,1200_1.7Hz.avi,willow8_zero_1.7Hz.wav,willow,4,6.90462610000031,0,8,149,152,178,153,1,5,2,4.06118237,NaN,9989.8797254,2,NaN,NaN,NaN
8,9,7,SyncDelta,152,1445_1.7Hz.avi,willow2_zero_1.7Hz.wav,willow,1,5.44617970000036,0,8,178,153,152,149,3,6,3,4.06118237,NaN,9998.9963894,2,NaN,NaN,NaN
8,10,7,SyncDelta,153,1157_1.7Hz.avi,willow1_zero_1.7Hz.wav,willow,1,3.06548660000044,0,8,149,152,178,153,4,13,4,4.06118237,NaN,10005.8464537,2,NaN,NaN,NaN
8,11,7,SyncDelta,178,1057_1.7Hz.avi,willow9_zero_1.7Hz.wav,willow,4,4.47282579999955,1,8,153,149,152,178,4,2,4,4.06118237,NaN,10011.196473,2,NaN,NaN,NaN
8,12,7,SyncDelta,135,1154_1.7Hz.avi,synth38_zero_1.7Hz.wav,synth,2,4.62289070000043,0,8,135,131,186,129,1,15,2,4.06118237,NaN,10017.496498,2,NaN,NaN,NaN
8,13,7,SyncDelta,189,1051_1.7Hz.avi,ep14_zero_1.7Hz.wav,ep,3,3.80520479999905,0,8,144,166,150,189,4,12,4,4.06118237,NaN,10024.1631613,2,NaN,NaN,NaN
8,14,7,SyncDelta,186,1031_1.7Hz.avi,synth7_zero_1.7Hz.wav,synth,1,3.98869259999992,1,8,186,131,135,129,1,16,1,4.06118237,NaN,10031.1298905,2,NaN,NaN,NaN
8,15,7,SyncDelta,166,1227_1.7Hz.avi,ep5_zero_1.7Hz.wav,ep,1,4.78792050000084,1,8,166,144,150,189,1,4,5,4.06118237,NaN,10037.5632474,2,NaN,NaN,NaN
8,16,7,SyncDelta,168,1204_1.7Hz.avi,guitar36_zero_1.7Hz.wav,guitar,4,3.80852979999872,0,8,164,168,185,161,2,14,2,4.06118237,NaN,10043.9299155,2,NaN,NaN,NaN
8,1,8,NoFlicker,44,1254_half_amp.avi,acoustic48_half_amp.wav,acoustic,4,4.02701309999975,0,8,44,23,60,47,1,5,5,4.11974268833333,NaN,10200.2972222,2,NaN,NaN,NaN
8,2,8,NoFlicker,52,1387_half_amp.avi,choir2_half_amp.wav,choir,2,4.39672769999925,0,8,52,68,72,63,1,6,1,4.11974268833333,NaN,10206.5139242,2,NaN,NaN,NaN
8,3,8,NoFlicker,68,1023_half_amp.avi,choir3_half_amp.wav,choir,2,3.85002469999927,0,8,68,72,52,63,1,8,1,4.11974268833333,NaN,10212.6139392,2,NaN,NaN,NaN
8,4,8,NoFlicker,49,1221_half_amp.avi,dar21_half_amp.wav,dar,1,3.88120419999905,1,8,49,56,80,43,1,10,2,4.11974268833333,NaN,10218.9306687,2,NaN,NaN,NaN
8,5,8,NoFlicker,72,1097_half_amp.avi,choir29_half_amp.wav,choir,3,3.13773550000042,1,8,52,63,72,68,3,9,5,4.11974268833333,NaN,10224.3973255,2,NaN,NaN,NaN
8,6,8,NoFlicker,47,1292_half_amp.avi,acoustic28_half_amp.wav,acoustic,1,3.19582079999964,0,8,23,47,60,44,2,1,1,4.11974268833333,NaN,10230.0640158,2,NaN,NaN,NaN
8,7,8,NoFlicker,56,1063_half_amp.avi,dar16_half_amp.wav,dar,4,5.69020679999994,1,8,43,49,80,56,4,4,1,4.11974268833333,NaN,10235.7807015,2,NaN,NaN,NaN
8,8,8,NoFlicker,57,1309_half_amp.avi,orch7_half_amp.wav,orch,1,3.96459970000069,0,8,102,57,85,81,2,7,4,4.11974268833333,NaN,10243.2474312,2,NaN,NaN,NaN
8,9,8,NoFlicker,81,1444_half_amp.avi,orch4_half_amp.wav,orch,2,3.60163739999916,0,8,57,85,81,102,3,11,5,4.11974268833333,NaN,10250.1640953,2,NaN,NaN,NaN
8,10,8,NoFlicker,85,1383_half_amp.avi,orch23_half_amp.wav,orch,2,4.8697575999995,0,8,57,81,102,85,4,14,5,4.11974268833333,NaN,10255.6807845,2,NaN,NaN,NaN
8,11,8,NoFlicker,102,1012_half_amp.avi,orch18_half_amp.wav,orch,1,4.52864080000109,0,8,57,85,102,81,3,3,4,4.11974268833333,NaN,10263.8808175,2,NaN,NaN,NaN
8,12,8,NoFlicker,80,1082_half_amp.avi,dar15_half_amp.wav,dar,4,4.54144200000155,0,8,49,80,43,56,2,13,1,4.11974268833333,NaN,10270.1475387,2,NaN,NaN,NaN
8,13,8,NoFlicker,60,1249_half_amp.avi,acoustic20_half_amp.wav,acoustic,4,3.09595279999849,0,8,60,47,23,44,1,12,2,4.11974268833333,NaN,10276.1642002,2,NaN,NaN,NaN
8,14,8,NoFlicker,43,1141_half_amp.avi,dar13_half_amp.wav,dar,3,3.21375880000051,1,8,56,80,43,49,3,16,2,4.11974268833333,NaN,10280.8309474,2,NaN,NaN,NaN
8,15,8,NoFlicker,23,1330_half_amp.avi,acoustic47_half_amp.wav,acoustic,2,2.87964810000085,0,8,47,60,23,44,3,2,3,4.11974268833333,NaN,10286.0475825,2,NaN,NaN,NaN
8,16,8,NoFlicker,63,1128_half_amp.avi,choir26_half_amp.wav,choir,4,3.27386710000064,0,8,68,52,63,72,3,15,1,4.11974268833333,NaN,10291.7642645,2,NaN,NaN,NaN
8,1,9,SyncDelta,117,1144_1.7Hz.avi,ep39_zero_1.7Hz.wav,ep,2,7.33946099999957,0,8,117,173,176,177,1,10,5,4.57803173,17.3315115516667,10533.5152179,3,NaN,NaN,NaN
8,2,9,SyncDelta,112,1388_1.7Hz.avi,guitar39_zero_1.7Hz.wav,guitar,2,3.29667599999993,0,8,179,172,112,170,3,5,3,4.57803173,17.3315115516667,10543.1652512,3,NaN,NaN,NaN
8,3,9,SyncDelta,170,1062_1.7Hz.avi,guitar3_zero_1.7Hz.wav,guitar,4,4.2763802999998,0,8,172,112,170,179,3,6,5,4.57803173,17.3315115516667,10548.398637,3,NaN,NaN,NaN
8,4,9,SyncDelta,163,1441_1.7Hz.avi,synth27_zero_1.7Hz.wav,synth,1,3.28015140000025,1,8,163,155,111,140,1,11,1,4.57803173,17.3315115516667,10554.3653299,3,NaN,NaN,NaN
8,5,9,SyncDelta,172,1350_1.7Hz.avi,guitar10_zero_1.7Hz.wav,guitar,4,3.28970010000012,1,8,112,170,179,172,4,7,1,4.57803173,17.3315115516667,10559.7819841,3,NaN,NaN,NaN
8,6,9,SyncDelta,176,1405_1.7Hz.avi,ep46_zero_1.7Hz.wav,ep,4,5.62263929999972,0,8,173,176,117,177,2,4,1,4.57803173,17.3315115516667,10564.6486666,3,NaN,NaN,NaN
8,7,9,SyncDelta,155,1042_1.7Hz.avi,synth10_zero_1.7Hz.wav,synth,1,4.00793010000052,1,8,155,111,140,163,1,1,2,4.57803173,17.3315115516667,10572.4820377,3,NaN,NaN,NaN
8,8,9,SyncDelta,118,1020_1.7Hz.avi,willow22_zero_1.7Hz.wav,willow,4,4.68140170000152,1,8,157,167,156,118,4,3,1,4.57803173,17.3315115516667,10579.7987332,3,NaN,NaN,NaN
8,9,9,SyncDelta,157,1225_1.7Hz.avi,willow14_zero_1.7Hz.wav,willow,1,3.27330020000045,0,8,118,156,167,157,4,9,4,4.57803173,17.3315115516667,10586.6154273,3,NaN,NaN,NaN
8,10,9,SyncDelta,156,1060_1.7Hz.avi,willow7_zero_1.7Hz.wav,willow,3,3.66995039999892,1,8,167,118,156,157,3,12,5,4.57803173,17.3315115516667,10593.0321182,3,NaN,NaN,NaN
8,11,9,SyncDelta,167,1177_1.7Hz.avi,willow24_zero_1.7Hz.wav,willow,2,2.29575689999911,0,8,167,156,118,157,1,2,3,4.57803173,17.3315115516667,10599.9321748,3,NaN,NaN,NaN
8,12,9,SyncDelta,111,1390_1.7Hz.avi,synth3_zero_1.7Hz.wav,synth,1,2.52355050000006,1,8,111,155,140,163,1,13,5,4.57803173,17.3315115516667,10605.2821669,3,NaN,NaN,NaN
8,13,9,SyncDelta,177,1283_1.7Hz.avi,ep38_zero_1.7Hz.wav,ep,4,4.67272489999959,1,8,117,176,173,177,4,15,4,4.57803173,17.3315115516667,10609.7655485,3,NaN,NaN,NaN
8,14,9,SyncDelta,140,1270_1.7Hz.avi,synth17_zero_1.7Hz.wav,synth,2,3.29602590000104,1,8,111,140,163,155,2,16,5,4.57803173,17.3315115516667,10617.4988834,3,NaN,NaN,NaN
8,15,9,SyncDelta,173,1348_1.7Hz.avi,ep31_zero_1.7Hz.wav,ep,3,2.4971256000008,0,8,176,173,117,177,2,8,3,4.57803173,17.3315115516667,10623.5655816,3,NaN,NaN,NaN
8,16,9,SyncDelta,179,1186_1.7Hz.avi,guitar30_zero_1.7Hz.wav,guitar,2,2.89768209999966,1,8,170,179,112,172,2,14,5,4.57803173,17.3315115516667,10629.1656305,3,NaN,NaN,NaN
8,1,10,SyncTheta,105,1003_4Hz.avi,acoustic6_zero_4Hz.wav,acoustic,3,3.48900810000123,0,8,96,175,107,105,4,10,3,4.03679311333333,17.3315115516667,10772.4661862,3,NaN,NaN,NaN
8,2,10,SyncTheta,88,1191_4Hz.avi,choir20_zero_4Hz.wav,choir,4,3.34369220000008,0,8,121,98,88,181,3,1,1,4.03679311333333,17.3315115516667,10778.9662462,3,NaN,NaN,NaN
8,3,10,SyncTheta,121,1354_4Hz.avi,choir22_zero_4Hz.wav,choir,3,5.54248430000007,1,8,181,98,121,88,3,3,1,4.03679311333333,17.3315115516667,10785.1495736,3,NaN,NaN,NaN
8,4,10,SyncTheta,187,1164_4Hz.avi,dar12_zero_4Hz.wav,dar,2,5.20813710000039,1,8,126,187,122,114,2,8,4,4.03679311333333,17.3315115516667,10792.5329358,3,NaN,NaN,NaN
8,5,10,SyncTheta,181,1168_4Hz.avi,choir1_zero_4Hz.wav,choir,2,3.2771472000004,1,8,98,181,88,121,2,6,5,4.03679311333333,17.3315115516667,10800.149669,3,NaN,NaN,NaN
8,6,10,SyncTheta,107,1265_4Hz.avi,acoustic16_zero_4Hz.wav,acoustic,2,4.1266226000007,0,8,105,175,107,96,3,2,2,4.03679311333333,17.3315115516667,10805.549663,3,NaN,NaN,NaN
8,7,10,SyncTheta,126,1298_4Hz.avi,dar9_zero_4Hz.wav,dar,1,5.86640710000029,0,8,187,122,126,114,3,5,3,4.03679311333333,17.3315115516667,10811.6997138,3,NaN,NaN,NaN
8,8,10,SyncTheta,188,1036_4Hz.avi,orch26_zero_4Hz.wav,orch,3,3.8918694999993,0,8,188,137,142,143,1,12,5,4.03679311333333,17.3315115516667,10819.5830764,3,NaN,NaN,NaN
8,9,10,SyncTheta,142,1155_4Hz.avi,orch9_zero_4Hz.wav,orch,3,4.07499970000026,0,8,137,142,143,188,2,13,2,4.03679311333333,17.3315115516667,10825.8664417,3,NaN,NaN,NaN
8,10,10,SyncTheta,137,1303_4Hz.avi,orch10_zero_4Hz.wav,orch,3,3.85083530000156,0,8,142,143,188,137,4,15,3,4.03679311333333,17.3315115516667,10832.9831081,3,NaN,NaN,NaN
8,11,10,SyncTheta,143,1127_4Hz.avi,orch11_zero_4Hz.wav,orch,4,3.56343770000058,0,8,142,143,188,137,2,4,4,4.03679311333333,17.3315115516667,10838.5998232,3,NaN,NaN,NaN
8,12,10,SyncTheta,114,1322_4Hz.avi,dar14_zero_4Hz.wav,dar,2,4.03066330000001,0,8,187,122,126,114,4,11,2,4.03679311333333,17.3315115516667,10844.5998239,3,NaN,NaN,NaN
8,13,10,SyncTheta,96,1027_4Hz.avi,acoustic40_zero_4Hz.wav,acoustic,1,5.89836360000118,0,8,107,105,175,96,4,14,1,4.03679311333333,17.3315115516667,10850.0165401,3,NaN,NaN,NaN
8,14,10,SyncTheta,122,1289_4Hz.avi,dar3_zero_4Hz.wav,dar,3,3.83597339999869,1,8,126,114,122,187,3,16,3,4.03679311333333,17.3315115516667,10858.0498736,3,NaN,NaN,NaN
8,15,10,SyncTheta,175,1103_4Hz.avi,acoustic10_zero_4Hz.wav,acoustic,2,2.18885840000075,0,8,107,96,105,175,4,7,3,4.03679311333333,17.3315115516667,10864.6832681,3,NaN,NaN,NaN
8,16,10,SyncTheta,98,1014_4Hz.avi,choir41_zero_4Hz.wav,choir,3,3.46209629999976,1,8,88,181,98,121,3,9,3,4.03679311333333,17.3315115516667,10871.0832613,3,NaN,NaN,NaN
8,1,11,AsyncTheta,99,1173_4Hz.avi,ep6_oneeighty_4Hz.wav,ep,3,4.25670220000029,0,8,24,26,106,99,4,10,1,4.26207734666667,17.3315115516667,11023.2005785,3,NaN,NaN,NaN
8,2,11,AsyncTheta,15,1422_4Hz.avi,guitar37_oneeighty_4Hz.wav,guitar,4,4.25176439999996,1,8,93,53,84,15,4,3,4,4.26207734666667,17.3315115516667,11029.4339195,3,NaN,NaN,NaN
8,3,11,AsyncTheta,84,1294_4Hz.avi,guitar6_oneeighty_4Hz.wav,guitar,3,3.21641789999921,0,8,84,15,93,53,1,11,4,4.26207734666667,17.3315115516667,11036.8839504,3,NaN,NaN,NaN
8,4,11,AsyncTheta,54,1181_4Hz.avi,synth12_oneeighty_4Hz.wav,synth,2,5.30187819999992,0,8,54,109,95,50,1,9,2,4.26207734666667,17.3315115516667,11041.8839837,3,NaN,NaN,NaN
8,5,11,AsyncTheta,53,1197_4Hz.avi,guitar46_oneeighty_4Hz.wav,guitar,3,3.80396929999915,1,8,93,15,53,84,3,13,4,4.26207734666667,17.3315115516667,11049.717366,3,NaN,NaN,NaN
8,6,11,AsyncTheta,26,1190_4Hz.avi,ep7_oneeighty_4Hz.wav,ep,4,5.4372800000001,1,8,99,106,24,26,4,5,4,4.26207734666667,17.3315115516667,11055.867394,3,NaN,NaN,NaN
8,7,11,AsyncTheta,109,1299_4Hz.avi,synth18_oneeighty_4Hz.wav,synth,4,3.53819420000036,0,8,95,50,109,54,3,6,2,4.26207734666667,17.3315115516667,11063.4174259,3,NaN,NaN,NaN
8,8,11,AsyncTheta,37,1237_4Hz.avi,willow15_oneeighty_4Hz.wav,willow,2,4.97165820000009,0,8,37,27,108,92,1,2,2,4.26207734666667,17.3315115516667,11070.1007861,3,NaN,NaN,NaN
8,9,11,AsyncTheta,27,1202_4Hz.avi,willow16_oneeighty_4Hz.wav,willow,4,3.44472949999908,0,8,27,37,92,108,1,4,1,4.26207734666667,17.3315115516667,11077.4007858,3,NaN,NaN,NaN
8,10,11,AsyncTheta,108,1415_4Hz.avi,willow3_oneeighty_4Hz.wav,willow,4,4.43873979999989,0,8,27,108,92,37,2,7,3,4.26207734666667,17.3315115516667,11083.9675118,3,NaN,NaN,NaN
8,11,11,AsyncTheta,92,1030_4Hz.avi,willow23_oneeighty_4Hz.wav,willow,1,3.36217980000038,0,8,27,92,37,108,2,1,2,4.26207734666667,17.3315115516667,11091.667543,3,NaN,NaN,NaN
8,12,11,AsyncTheta,50,1049_4Hz.avi,synth43_oneeighty_4Hz.wav,synth,1,6.11139879999973,0,8,54,109,95,50,4,14,5,4.26207734666667,17.3315115516667,11096.9008981,3,NaN,NaN,NaN
8,13,11,AsyncTheta,24,1217_4Hz.avi,ep44_oneeighty_4Hz.wav,ep,4,2.64389590000064,1,8,99,26,106,24,4,12,5,4.26207734666667,17.3315115516667,11105.0842325,3,NaN,NaN,NaN
8,14,11,AsyncTheta,95,1359_4Hz.avi,synth33_oneeighty_4Hz.wav,synth,3,2.31236850000096,0,8,50,95,109,54,2,15,2,4.26207734666667,17.3315115516667,11111.0509264,3,NaN,NaN,NaN
8,15,11,AsyncTheta,106,1113_4Hz.avi,ep29_oneeighty_4Hz.wav,ep,1,3.73869689999992,0,8,99,106,26,24,2,8,2,4.26207734666667,17.3315115516667,11116.4009791,3,NaN,NaN,NaN
8,16,11,AsyncTheta,93,1046_4Hz.avi,guitar18_oneeighty_4Hz.wav,guitar,4,8.78645580000011,1,8,53,84,15,93,4,16,5,4.26207734666667,17.3315115516667,11121.6176464,3,NaN,NaN,NaN
8,1,12,NoFlicker,5,1381_half_amp.avi,acoustic1_half_amp.wav,acoustic,4,3.32237229999919,1,8,20,9,39,5,4,12,3,3.97094373166667,17.3315115516667,11280.2683448,3,NaN,NaN,NaN
8,2,12,NoFlicker,12,1077_half_amp.avi,choir18_half_amp.wav,choir,1,4.22962959999859,0,8,62,12,19,13,2,4,2,3.97094373166667,17.3315115516667,11285.4683724,3,NaN,NaN,NaN
8,3,12,NoFlicker,13,1201_half_amp.avi,choir7_half_amp.wav,choir,4,3.30298240000047,1,8,62,19,12,13,4,6,2,3.97094373166667,17.3315115516667,11292.1517118,3,NaN,NaN,NaN
8,4,12,NoFlicker,45,1203_half_amp.avi,dar2_half_amp.wav,dar,1,2.88963650000005,1,8,45,29,34,31,1,2,4,3.97094373166667,17.3315115516667,11297.6017002,3,NaN,NaN,NaN
8,5,12,NoFlicker,62,1058_half_amp.avi,choir19_half_amp.wav,choir,1,4.0690496999996,0,8,19,12,13,62,4,10,4,3.97094373166667,17.3315115516667,11302.7517282,3,NaN,NaN,NaN
8,6,12,NoFlicker,20,1236_half_amp.avi,acoustic25_half_amp.wav,acoustic,2,3.68897470000047,1,8,39,20,9,5,2,3,5,3.97094373166667,17.3315115516667,11308.2017456,3,NaN,NaN,NaN
8,7,12,NoFlicker,34,1319_half_amp.avi,dar22_half_amp.wav,dar,2,4.30116479999924,0,8,45,31,34,29,3,1,5,3.97094373166667,17.3315115516667,11313.8184311,3,NaN,NaN,NaN
8,8,12,NoFlicker,74,1337_half_amp.avi,orch24_half_amp.wav,orch,1,4.93342809999922,0,8,33,36,30,74,4,7,4,3.97094373166667,17.3315115516667,11320.3851329,3,NaN,NaN,NaN
8,9,12,NoFlicker,36,1284_half_amp.avi,orch29_half_amp.wav,orch,1,3.70521759999974,0,8,74,36,33,30,2,9,4,3.97094373166667,17.3315115516667,11326.8184869,3,NaN,NaN,NaN
8,10,12,NoFlicker,30,1016_half_amp.avi,orch14_half_amp.wav,orch,4,2.06738229999974,1,8,36,74,33,30,4,11,1,3.97094373166667,17.3315115516667,11332.3852068,3,NaN,NaN,NaN
8,11,12,NoFlicker,33,1136_half_amp.avi,orch38_half_amp.wav,orch,3,3.71445959999983,0,8,74,30,36,33,4,5,1,3.97094373166667,17.3315115516667,11338.0518661,3,NaN,NaN,NaN
8,12,12,NoFlicker,31,1404_half_amp.avi,dar8_half_amp.wav,dar,3,3.21726940000008,1,8,45,34,31,29,3,13,5,3.97094373166667,17.3315115516667,11344.2352252,3,NaN,NaN,NaN
8,13,12,NoFlicker,9,1054_half_amp.avi,acoustic44_half_amp.wav,acoustic,3,3.20792790000087,0,8,39,5,20,9,4,16,4,3.97094373166667,17.3315115516667,11349.2186114,3,NaN,NaN,NaN
8,14,12,NoFlicker,29,1158_half_amp.avi,dar23_half_amp.wav,dar,2,2.58081730000049,0,8,29,45,34,31,1,14,4,3.97094373166667,17.3315115516667,11353.9685971,3,NaN,NaN,NaN
8,15,12,NoFlicker,39,1061_half_amp.avi,acoustic11_half_amp.wav,acoustic,3,3.84233540000059,0,8,39,20,5,9,1,8,4,3.97094373166667,17.3315115516667,11359.9186273,3,NaN,NaN,NaN
8,16,12,NoFlicker,19,1247_half_amp.avi,choir38_half_amp.wav,choir,3,3.36462759999995,0,8,12,19,62,13,2,15,5,3.97094373166667,17.3315115516667,11365.5853222,3,NaN,NaN,NaN
