ParticipantID,TrialNumber,BlockNumber,Condition,ClipID,VideoFile,SoundFile,SoundCategory,Response,RT,Accuracy,ConditionID,Frame1,Frame2,Frame3,Frame4,CorrectKey,EncodingPosition,Rating,BlockDuration,ExperimentDuration,MemoryTestOnset,RunNumber,Age,Handedness,Sex
23,1,1,SyncTheta,61,1207_4Hz.avi,synth46_zero_4Hz.wav,synth,1,21.7644362999999,0,23,35,61,8,54,2,14,2,8.79746587166667,NaN,3491.486018,1,NaN,NaN,NaN
23,2,1,SyncTheta,41,1132_4Hz.avi,ep10_zero_4Hz.wav,ep,3,26.1643558999999,1,23,6,26,41,16,3,7,2,8.79746587166667,NaN,3515.1194387,1,NaN,NaN,NaN
23,3,1,SyncTheta,48,1021_4Hz.avi,willow12_zero_4Hz.wav,willow,2,14.5318446000001,0,23,48,37,18,22,1,8,2,8.79746587166667,NaN,3544.4029055,1,NaN,NaN,NaN
23,4,1,SyncTheta,3,1156_4Hz.avi,guitar31_zero_4Hz.wav,guitar,1,17.1867652999999,0,23,53,3,7,59,2,13,4,8.79746587166667,NaN,3562.1196561,1,NaN,NaN,NaN
23,5,1,SyncTheta,26,1190_4Hz.avi,ep7_zero_4Hz.wav,ep,2,18.4634347000001,0,23,16,41,6,26,4,3,4,8.79746587166667,NaN,3582.6696666,1,NaN,NaN,NaN
23,6,1,SyncTheta,54,1181_4Hz.avi,synth12_zero_4Hz.wav,synth,4,10.5047202000001,0,23,8,54,35,61,2,12,4,8.79746587166667,NaN,3604.4031105,1,NaN,NaN,NaN
23,7,1,SyncTheta,18,1101_4Hz.avi,willow13_zero_4Hz.wav,willow,1,15.3570456000002,0,23,48,22,37,18,4,6,3,8.79746587166667,NaN,3617.0364818,1,NaN,NaN,NaN
23,8,1,SyncTheta,35,1039_4Hz.avi,synth5_zero_4Hz.wav,synth,4,10.0337699000002,0,23,35,61,8,54,1,11,2,8.79746587166667,NaN,3635.5031787,1,NaN,NaN,NaN
23,9,1,SyncTheta,59,1346_4Hz.avi,guitar33_zero_4Hz.wav,guitar,4,15.2232607999999,0,23,53,3,59,7,3,9,2,8.79746587166667,NaN,3647.5365869,1,NaN,NaN,NaN
23,10,1,SyncTheta,7,1017_4Hz.avi,guitar47_zero_4Hz.wav,guitar,4,3.67143690000012,1,23,53,3,59,7,4,10,1,8.79746587166667,NaN,3665.6032854,1,NaN,NaN,NaN
23,11,1,SyncTheta,22,1212_4Hz.avi,willow20_zero_4Hz.wav,willow,1,11.8416395999998,1,23,22,18,37,48,1,2,4,8.79746587166667,NaN,3670.7533302,1,NaN,NaN,NaN
23,12,1,SyncTheta,16,1442_4Hz.avi,ep34_zero_4Hz.wav,ep,4,10.2789922000002,0,23,16,6,41,26,1,4,3,8.79746587166667,NaN,3685.2867173,1,NaN,NaN,NaN
23,13,1,SyncTheta,37,1237_4Hz.avi,willow15_zero_4Hz.wav,willow,4,4.89712579999969,1,23,48,22,18,37,4,15,4,8.79746587166667,NaN,3698.7200713,1,NaN,NaN,NaN
23,14,1,SyncTheta,6,1007_4Hz.avi,ep8_zero_4Hz.wav,ep,2,7.09138459999986,1,23,26,6,41,16,2,5,3,8.79746587166667,NaN,3705.0200969,1,NaN,NaN,NaN
23,15,1,SyncTheta,8,1252_4Hz.avi,synth25_zero_4Hz.wav,synth,1,4.61304430000018,1,23,8,35,61,54,1,16,4,8.79746587166667,NaN,3714.0368335,1,NaN,NaN,NaN
23,16,1,SyncTheta,53,1197_4Hz.avi,guitar46_zero_4Hz.wav,guitar,1,10.7677581000003,0,23,3,53,59,7,2,1,1,8.79746587166667,NaN,3720.5201448,1,NaN,NaN,NaN
23,1,2,AsyncTheta,131,1366_4Hz.avi,synth34_oneeighty_4Hz.wav,synth,3,16.2777692999998,1,23,128,111,131,186,3,12,4,7.051171975,NaN,3951.6376799,1,NaN,NaN,NaN
23,2,2,AsyncTheta,189,1051_4Hz.avi,ep14_oneeighty_4Hz.wav,ep,4,2.78650870000001,1,23,138,117,150,189,4,11,3,7.051171975,NaN,3971.2377605,1,NaN,NaN,NaN
23,3,2,AsyncTheta,130,1081_4Hz.avi,willow5_oneeighty_4Hz.wav,willow,3,13.2826055999999,0,23,178,152,118,130,4,6,4,7.051171975,NaN,3975.6877731,1,NaN,NaN,NaN
23,4,2,AsyncTheta,112,1388_4Hz.avi,guitar39_oneeighty_4Hz.wav,guitar,3,11.9007648000002,1,23,151,164,112,185,3,16,2,7.051171975,NaN,3990.8544933,1,NaN,NaN,NaN
23,5,2,AsyncTheta,138,1149_4Hz.avi,ep2_oneeighty_4Hz.wav,ep,3,11.0430745000003,0,23,189,117,150,138,4,1,4,7.051171975,NaN,4004.4379062,1,NaN,NaN,NaN
23,6,2,AsyncTheta,111,1390_4Hz.avi,synth3_oneeighty_4Hz.wav,synth,2,12.6440312,0,23,131,186,111,128,3,8,5,7.051171975,NaN,4016.921273,1,NaN,NaN,NaN
23,7,2,AsyncTheta,178,1057_4Hz.avi,willow9_oneeighty_4Hz.wav,willow,3,9.47938019999992,0,23,152,118,130,178,4,5,4,7.051171975,NaN,4031.4546446,1,NaN,NaN,NaN
23,8,2,AsyncTheta,186,1031_4Hz.avi,synth7_oneeighty_4Hz.wav,synth,1,12.7484731,0,23,111,128,186,131,3,3,2,7.051171975,NaN,4043.3880296,1,NaN,NaN,NaN
23,9,2,AsyncTheta,185,1131_4Hz.avi,guitar45_oneeighty_4Hz.wav,guitar,2,4.13424239999995,1,23,164,185,151,112,2,13,5,7.051171975,NaN,4059.121422,1,NaN,NaN,NaN
23,10,2,AsyncTheta,151,1259_4Hz.avi,guitar43_oneeighty_4Hz.wav,guitar,3,5.04810640000005,0,23,112,164,185,151,4,15,2,7.051171975,NaN,4064.8214659,1,NaN,NaN,NaN
23,11,2,AsyncTheta,118,1020_4Hz.avi,willow22_oneeighty_4Hz.wav,willow,1,13.1971860000003,1,23,118,152,130,178,1,2,2,7.051171975,NaN,4072.8381689,1,NaN,NaN,NaN
23,12,2,AsyncTheta,117,1144_4Hz.avi,ep39_oneeighty_4Hz.wav,ep,1,4.62182910000001,1,23,117,189,138,150,1,4,2,7.051171975,NaN,4089.321538,1,NaN,NaN,NaN
23,13,2,AsyncTheta,152,1445_4Hz.avi,willow2_oneeighty_4Hz.wav,willow,2,19.9797178999997,0,23,130,178,152,118,3,7,4,7.051171975,NaN,4096.1715757,1,NaN,NaN,NaN
23,14,2,AsyncTheta,150,1394_4Hz.avi,ep11_oneeighty_4Hz.wav,ep,3,3.63521450000007,1,23,189,138,150,117,3,10,2,7.051171975,NaN,4118.7216637,1,NaN,NaN,NaN
23,15,2,AsyncTheta,128,1269_4Hz.avi,synth14_oneeighty_4Hz.wav,synth,2,6.78895130000001,0,23,128,131,111,186,1,14,2,7.051171975,NaN,4125.4050131,1,NaN,NaN,NaN
23,16,2,AsyncTheta,164,1087_4Hz.avi,guitar17_oneeighty_4Hz.wav,guitar,2,20.0343789000008,0,23,112,185,151,164,4,9,5,7.051171975,NaN,4134.4717144,1,NaN,NaN,NaN
23,1,3,SyncDelta,56,1063_1.7Hz.avi,dar16_zero_1.7Hz.wav,dar,4,7.94167920000018,1,23,34,29,2,56,4,13,2,6.00828195333333,NaN,4337.5391418,1,NaN,NaN,NaN
23,2,3,SyncDelta,47,1292_1.7Hz.avi,acoustic28_zero_1.7Hz.wav,acoustic,4,7.01471849999962,0,23,1,47,20,5,2,11,2,6.00828195333333,NaN,4348.0225288,1,NaN,NaN,NaN
23,3,3,SyncDelta,36,1284_1.7Hz.avi,orch29_zero_1.7Hz.wav,orch,3,6.28405249999923,1,23,17,85,36,30,3,15,4,6.00828195333333,NaN,4356.489247,1,NaN,NaN,NaN
23,4,3,SyncDelta,12,1077_1.7Hz.avi,choir18_zero_1.7Hz.wav,choir,2,5.4229548000003,1,23,19,12,68,10,2,12,4,6.00828195333333,NaN,4364.6059091,1,NaN,NaN,NaN
23,5,3,SyncDelta,5,1381_1.7Hz.avi,acoustic1_zero_1.7Hz.wav,acoustic,2,6.46974529999989,0,23,20,1,47,5,4,6,2,6.00828195333333,NaN,4372.0059688,1,NaN,NaN,NaN
23,6,3,SyncDelta,29,1158_1.7Hz.avi,dar23_zero_1.7Hz.wav,dar,1,8.82985589999953,0,23,34,56,2,29,4,4,4,6.00828195333333,NaN,4380.9060048,1,NaN,NaN,NaN
23,7,3,SyncDelta,30,1016_1.7Hz.avi,orch14_zero_1.7Hz.wav,orch,1,7.71913239999958,0,23,17,36,85,30,4,9,3,6.00828195333333,NaN,4392.3560321,1,NaN,NaN,NaN
23,8,3,SyncDelta,34,1319_1.7Hz.avi,dar22_zero_1.7Hz.wav,dar,1,8.18472159999965,1,23,34,56,29,2,1,3,3,6.00828195333333,NaN,4402.2727192,1,NaN,NaN,NaN
23,9,3,SyncDelta,68,1023_1.7Hz.avi,choir3_zero_1.7Hz.wav,choir,3,12.4029017000003,0,23,12,68,10,19,2,2,2,6.00828195333333,NaN,4412.7561225,1,NaN,NaN,NaN
23,10,3,SyncDelta,10,1179_1.7Hz.avi,choir4_zero_1.7Hz.wav,choir,1,7.86167670000032,1,23,10,19,68,12,1,10,2,6.00828195333333,NaN,4428.3228307,1,NaN,NaN,NaN
23,11,3,SyncDelta,17,1162_1.7Hz.avi,orch1_zero_1.7Hz.wav,orch,3,23.3078421,1,23,36,30,17,85,3,5,4,6.00828195333333,NaN,4439.1229032,1,NaN,NaN,NaN
23,12,3,SyncDelta,1,1064_1.7Hz.avi,acoustic12_zero_1.7Hz.wav,acoustic,1,4.09971370000039,0,23,5,1,47,20,2,7,1,6.00828195333333,NaN,4464.0563039,1,NaN,NaN,NaN
23,13,3,SyncDelta,85,1383_1.7Hz.avi,orch23_zero_1.7Hz.wav,orch,1,5.84875610000017,1,23,85,30,36,17,1,16,3,6.00828195333333,NaN,4471.4563197,1,NaN,NaN,NaN
23,14,3,SyncDelta,20,1236_1.7Hz.avi,acoustic25_zero_1.7Hz.wav,acoustic,3,12.8757661,1,23,1,47,20,5,3,8,5,6.00828195333333,NaN,4479.3563642,1,NaN,NaN,NaN
23,15,3,SyncDelta,2,1431_1.7Hz.avi,dar24_zero_1.7Hz.wav,dar,4,6.41904799999975,1,23,34,56,29,2,4,14,3,6.00828195333333,NaN,4493.839767,1,NaN,NaN,NaN
23,16,3,SyncDelta,19,1247_1.7Hz.avi,choir38_zero_1.7Hz.wav,choir,3,11.8916337000001,1,23,68,12,19,10,3,1,2,6.00828195333333,NaN,4503.2231082,1,NaN,NaN,NaN
23,1,4,NoFlicker,122,1289_half_amp.avi,dar3_half_amp.wav,dar,2,9.46250190000046,0,23,103,191,122,136,3,11,1,5.45084362,NaN,4698.6405472,1,NaN,NaN,NaN
23,2,4,NoFlicker,105,1003_half_amp.avi,acoustic6_half_amp.wav,acoustic,3,6.16886760000034,0,23,83,105,113,190,2,12,2,5.45084362,NaN,4710.0238977,1,NaN,NaN,NaN
23,3,4,NoFlicker,134,1026_half_amp.avi,orch16_half_amp.wav,orch,4,10.3717102999999,0,23,134,192,145,142,1,10,2,5.45084362,NaN,4718.5239212,1,NaN,NaN,NaN
23,4,4,NoFlicker,124,1183_half_amp.avi,choir24_half_amp.wav,choir,2,3.8495254999998,0,23,124,98,182,78,1,15,4,5.45084362,NaN,4732.1073206,1,NaN,NaN,NaN
23,5,4,NoFlicker,190,1427_half_amp.avi,acoustic46_half_amp.wav,acoustic,3,5.35065729999951,0,23,83,190,105,113,2,1,4,5.45084362,NaN,4737.8240555,1,NaN,NaN,NaN
23,6,4,NoFlicker,191,1314_half_amp.avi,dar19_half_amp.wav,dar,1,3.53582700000061,0,23,122,136,103,191,4,4,3,5.45084362,NaN,4745.5240299,1,NaN,NaN,NaN
23,7,4,NoFlicker,142,1155_half_amp.avi,orch9_half_amp.wav,orch,3,4.82457189999968,1,23,145,192,142,134,3,9,5,5.45084362,NaN,4750.7740728,1,NaN,NaN,NaN
23,8,4,NoFlicker,136,1175_half_amp.avi,dar4_half_amp.wav,dar,3,7.90504950000013,0,23,136,122,191,103,1,2,5,5.45084362,NaN,4757.5074616,1,NaN,NaN,NaN
23,9,4,NoFlicker,98,1014_half_amp.avi,choir41_half_amp.wav,choir,1,3.4589648000001,0,23,182,78,124,98,4,5,4,5.45084362,NaN,4768.6241189,1,NaN,NaN,NaN
23,10,4,NoFlicker,78,1301_half_amp.avi,choir11_half_amp.wav,choir,4,4.26052789999994,0,23,78,182,124,98,1,14,4,5.45084362,NaN,4774.7574692,1,NaN,NaN,NaN
23,11,4,NoFlicker,145,1352_half_amp.avi,orch39_half_amp.wav,orch,3,7.60194630000024,1,23,192,142,145,134,3,6,4,5.45084362,NaN,4780.7908281,1,NaN,NaN,NaN
23,12,4,NoFlicker,113,1037_half_amp.avi,acoustic23_half_amp.wav,acoustic,4,12.2363456999992,0,23,113,105,190,83,1,7,5,5.45084362,NaN,4790.3741968,1,NaN,NaN,NaN
23,13,4,NoFlicker,192,1231_half_amp.avi,orch32_half_amp.wav,orch,4,4.42524570000023,1,23,142,145,134,192,4,13,4,5.45084362,NaN,4805.640953,1,NaN,NaN,NaN
23,14,4,NoFlicker,83,1139_half_amp.avi,acoustic27_half_amp.wav,acoustic,2,5.73409410000022,1,23,113,83,105,190,2,8,5,5.45084362,NaN,4813.0242794,1,NaN,NaN,NaN
23,15,4,NoFlicker,103,1084_half_amp.avi,dar20_half_amp.wav,dar,3,9.80449930000032,0,23,136,122,191,103,4,16,4,5.45084362,NaN,4821.4576982,1,NaN,NaN,NaN
23,16,4,NoFlicker,182,1277_half_amp.avi,choir39_half_amp.wav,choir,4,8.69866920000004,0,23,182,98,124,78,1,3,2,5.45084362,NaN,4833.5910207,1,NaN,NaN,NaN
23,1,5,SyncDelta,43,1141_1.7Hz.avi,dar13_zero_1.7Hz.wav,dar,2,5.99751879999985,0,23,49,31,43,14,3,9,1,5.313292485,NaN,5127.0420628,2,NaN,NaN,NaN
23,2,5,SyncDelta,9,1054_1.7Hz.avi,acoustic44_zero_1.7Hz.wav,acoustic,4,7.05590870000015,1,23,4,44,23,9,4,16,4,5.313292485,NaN,5134.8420562,2,NaN,NaN,NaN
23,3,5,SyncDelta,28,1148_1.7Hz.avi,orch19_zero_1.7Hz.wav,orch,2,5.65904909999972,1,23,33,28,57,81,2,12,1,5.313292485,NaN,5143.4087551,2,NaN,NaN,NaN
23,4,5,SyncDelta,63,1128_1.7Hz.avi,choir26_zero_1.7Hz.wav,choir,1,3.3260965999998,0,23,13,52,11,63,4,15,2,5.313292485,NaN,5150.6588142,2,NaN,NaN,NaN
23,5,5,SyncDelta,4,1167_1.7Hz.avi,acoustic37_zero_1.7Hz.wav,acoustic,4,5.89286690000063,0,23,9,44,4,23,3,8,4,5.313292485,NaN,5157.0088356,2,NaN,NaN,NaN
23,6,5,SyncDelta,14,1416_1.7Hz.avi,dar1_zero_1.7Hz.wav,dar,2,5.39573180000025,0,23,49,43,14,31,3,7,1,5.313292485,NaN,5165.3921746,2,NaN,NaN,NaN
23,7,5,SyncDelta,57,1309_1.7Hz.avi,orch7_zero_1.7Hz.wav,orch,4,3.60614480000004,1,23,28,33,81,57,4,6,5,5.313292485,NaN,5172.9255776,2,NaN,NaN,NaN
23,8,5,SyncDelta,49,1221_1.7Hz.avi,dar21_zero_1.7Hz.wav,dar,3,8.41054100000019,0,23,14,49,43,31,2,1,2,5.313292485,NaN,5179.7588854,2,NaN,NaN,NaN
23,9,5,SyncDelta,52,1387_1.7Hz.avi,choir2_zero_1.7Hz.wav,choir,1,9.22635290000017,1,23,52,63,13,11,1,4,5,5.313292485,NaN,5190.5922656,2,NaN,NaN,NaN
23,10,5,SyncDelta,11,1448_1.7Hz.avi,choir36_zero_1.7Hz.wav,choir,3,5.23565079999935,0,23,13,11,52,63,2,5,5,5.313292485,NaN,5202.8923118,2,NaN,NaN,NaN
23,11,5,SyncDelta,33,1136_1.7Hz.avi,orch38_zero_1.7Hz.wav,orch,2,8.02168210000036,1,23,57,33,28,81,2,3,4,5.313292485,NaN,5209.9589988,2,NaN,NaN,NaN
23,12,5,SyncDelta,44,1254_1.7Hz.avi,acoustic48_zero_1.7Hz.wav,acoustic,4,4.5812350999995,0,23,9,23,44,4,3,10,2,5.313292485,NaN,5220.7423754,2,NaN,NaN,NaN
23,13,5,SyncDelta,81,1444_1.7Hz.avi,orch4_zero_1.7Hz.wav,orch,2,4.77879080000002,1,23,57,81,28,33,2,13,4,5.313292485,NaN,5227.5090694,2,NaN,NaN,NaN
23,14,5,SyncDelta,23,1330_1.7Hz.avi,acoustic47_zero_1.7Hz.wav,acoustic,1,3.84325360000003,1,23,23,4,44,9,1,14,2,5.313292485,NaN,5234.5924267,2,NaN,NaN,NaN
23,15,5,SyncDelta,31,1404_1.7Hz.avi,dar8_zero_1.7Hz.wav,dar,4,1.51880249999977,1,23,49,43,14,31,4,11,5,5.313292485,NaN,5239.9424515,2,NaN,NaN,NaN
23,16,5,SyncDelta,13,1201_1.7Hz.avi,choir7_zero_1.7Hz.wav,choir,3,3.95142109999961,1,23,52,11,13,63,3,2,1,5.313292485,NaN,5244.3758346,2,NaN,NaN,NaN
23,1,6,SyncTheta,50,1049_4Hz.avi,synth43_zero_4Hz.wav,synth,4,4.98800959999971,0,23,109,100,50,95,3,7,4,4.84752158833333,NaN,5407.6430791,2,NaN,NaN,NaN
23,2,6,SyncTheta,101,1295_4Hz.avi,ep40_zero_4Hz.wav,ep,2,4.07888879999973,1,23,106,101,24,99,2,13,5,4.84752158833333,NaN,5414.3764773,2,NaN,NaN,NaN
23,3,6,SyncTheta,94,1109_4Hz.avi,willow6_zero_4Hz.wav,willow,2,6.20483039999999,0,23,27,108,94,92,3,11,5,4.84752158833333,NaN,5419.8431285,2,NaN,NaN,NaN
23,4,6,SyncTheta,90,1273_4Hz.avi,guitar23_zero_4Hz.wav,guitar,4,6.72272220000013,0,23,84,90,93,15,2,15,2,4.84752158833333,NaN,5427.743162,2,NaN,NaN,NaN
23,5,6,SyncTheta,106,1113_4Hz.avi,ep29_zero_4Hz.wav,ep,1,5.10100520000015,1,23,106,99,24,101,1,2,4,4.84752158833333,NaN,5437.5598647,2,NaN,NaN,NaN
23,6,6,SyncTheta,100,1107_4Hz.avi,synth23_zero_4Hz.wav,synth,4,10.9406822999999,1,23,50,109,95,100,4,6,2,4.84752158833333,NaN,5445.3099056,2,NaN,NaN,NaN
23,7,6,SyncTheta,92,1030_4Hz.avi,willow23_zero_4Hz.wav,willow,1,5.11183809999966,0,23,27,92,108,94,2,8,1,4.84752158833333,NaN,5458.0099737,2,NaN,NaN,NaN
23,8,6,SyncTheta,109,1299_4Hz.avi,synth18_zero_4Hz.wav,synth,1,5.21661630000017,1,23,109,95,100,50,1,5,5,4.84752158833333,NaN,5465.6099671,2,NaN,NaN,NaN
23,9,6,SyncTheta,93,1046_4Hz.avi,guitar18_zero_4Hz.wav,guitar,2,5.30408059999991,1,23,90,93,84,15,2,9,4,4.84752158833333,NaN,5472.4600232,2,NaN,NaN,NaN
23,10,6,SyncTheta,84,1294_4Hz.avi,guitar6_zero_4Hz.wav,guitar,4,6.05228090000037,0,23,90,93,84,15,3,10,2,4.84752158833333,NaN,5479.6600241,2,NaN,NaN,NaN
23,11,6,SyncTheta,108,1415_4Hz.avi,willow3_zero_4Hz.wav,willow,4,11.4801996000006,0,23,108,27,94,92,1,4,2,4.84752158833333,NaN,5487.4600765,2,NaN,NaN,NaN
23,12,6,SyncTheta,99,1173_4Hz.avi,ep6_zero_4Hz.wav,ep,1,3.14618159999918,0,23,106,24,99,101,3,3,4,4.84752158833333,NaN,5500.6934686,2,NaN,NaN,NaN
23,13,6,SyncTheta,27,1202_4Hz.avi,willow16_zero_4Hz.wav,willow,3,4.44897820000006,0,23,27,92,94,108,1,16,4,4.84752158833333,NaN,5506.6435138,2,NaN,NaN,NaN
23,14,6,SyncTheta,24,1217_4Hz.avi,ep44_zero_4Hz.wav,ep,2,5.40104040000006,0,23,106,99,101,24,4,12,4,4.84752158833333,NaN,5514.2768475,2,NaN,NaN,NaN
23,15,6,SyncTheta,95,1359_4Hz.avi,synth33_zero_4Hz.wav,synth,4,8.84921339999983,0,23,95,100,109,50,1,14,1,4.84752158833333,NaN,5522.0935198,2,NaN,NaN,NaN
23,16,6,SyncTheta,15,1422_4Hz.avi,guitar37_zero_4Hz.wav,guitar,2,5.56957289999991,0,23,93,90,84,15,4,1,4,4.84752158833333,NaN,5533.6935872,2,NaN,NaN,NaN
23,1,7,AsyncTheta,135,1154_4Hz.avi,synth38_oneeighty_4Hz.wav,synth,3,3.6545102,0,23,163,135,125,127,2,12,2,4.6367683,NaN,5710.8776237,2,NaN,NaN,NaN
23,2,7,AsyncTheta,132,1356_4Hz.avi,ep30_oneeighty_4Hz.wav,ep,2,3.5189392000002,0,23,166,123,177,132,4,16,2,4.6367683,NaN,5717.294272,2,NaN,NaN,NaN
23,3,7,AsyncTheta,153,1157_4Hz.avi,willow1_oneeighty_4Hz.wav,willow,1,3.25707969999985,1,23,153,120,167,119,1,5,4,4.6367683,NaN,5723.7276519,2,NaN,NaN,NaN
23,4,7,AsyncTheta,168,1204_4Hz.avi,guitar36_oneeighty_4Hz.wav,guitar,4,7.70237590000033,0,23,168,146,115,179,1,10,2,4.6367683,NaN,5728.8776687,2,NaN,NaN,NaN
23,5,7,AsyncTheta,166,1227_4Hz.avi,ep5_oneeighty_4Hz.wav,ep,3,2.02360219999991,1,23,123,132,166,177,3,9,4,4.6367683,NaN,5738.4943314,2,NaN,NaN,NaN
23,6,7,AsyncTheta,127,1411_4Hz.avi,synth28_oneeighty_4Hz.wav,synth,4,3.22697670000071,0,23,127,125,135,163,1,7,2,4.6367683,NaN,5744.3443541,2,NaN,NaN,NaN
23,7,7,AsyncTheta,120,1365_4Hz.avi,willow21_oneeighty_4Hz.wav,willow,3,3.82216440000047,0,23,153,119,167,120,4,4,2,4.6367683,NaN,5749.3277338,2,NaN,NaN,NaN
23,8,7,AsyncTheta,125,1050_4Hz.avi,synth36_oneeighty_4Hz.wav,synth,1,5.22502420000001,0,23,127,135,163,125,4,2,4,4.6367683,NaN,5756.3777546,2,NaN,NaN,NaN
23,9,7,AsyncTheta,115,1370_4Hz.avi,guitar9_oneeighty_4Hz.wav,guitar,2,3.39562219999971,0,23,115,146,179,168,1,6,1,4.6367683,NaN,5763.5610863,2,NaN,NaN,NaN
23,10,7,AsyncTheta,146,1005_4Hz.avi,guitar14_oneeighty_4Hz.wav,guitar,2,6.4464794000005,0,23,115,179,168,146,4,8,1,4.6367683,NaN,5770.1444611,2,NaN,NaN,NaN
23,11,7,AsyncTheta,167,1177_4Hz.avi,willow24_oneeighty_4Hz.wav,willow,4,4.86429370000042,0,23,167,119,153,120,1,1,2,4.6367683,NaN,5777.961146,2,NaN,NaN,NaN
23,12,7,AsyncTheta,177,1283_4Hz.avi,ep38_oneeighty_4Hz.wav,ep,4,5.46278480000001,0,23,132,177,166,123,2,11,1,4.6367683,NaN,5785.1111664,2,NaN,NaN,NaN
23,13,7,AsyncTheta,119,1189_4Hz.avi,willow11_oneeighty_4Hz.wav,willow,4,4.17971020000005,1,23,153,120,167,119,4,13,2,4.6367683,NaN,5792.9445337,2,NaN,NaN,NaN
23,14,7,AsyncTheta,123,1067_4Hz.avi,ep37_oneeighty_4Hz.wav,ep,1,4.01248190000024,0,23,177,132,166,123,4,14,5,4.6367683,NaN,5800.1612559,2,NaN,NaN,NaN
23,15,7,AsyncTheta,163,1441_4Hz.avi,synth27_oneeighty_4Hz.wav,synth,3,5.15841079999973,0,23,125,163,127,135,2,15,1,4.6367683,NaN,5807.1445862,2,NaN,NaN,NaN
23,16,7,AsyncTheta,179,1186_4Hz.avi,guitar30_oneeighty_4Hz.wav,guitar,1,3.91548059999968,1,23,179,115,168,146,1,3,4,4.6367683,NaN,5813.67798,2,NaN,NaN,NaN
23,1,8,NoFlicker,126,1298_half_amp.avi,dar9_half_amp.wav,dar,3,11.2137260999998,0,23,126,154,147,82,1,12,4,4.33985897333333,NaN,5960.3284991,2,NaN,NaN,NaN
23,2,8,NoFlicker,148,1121_half_amp.avi,acoustic26_half_amp.wav,acoustic,4,3.19550240000081,0,23,79,148,107,133,2,14,2,4.33985897333333,NaN,5973.2952049,2,NaN,NaN,NaN
23,3,8,NoFlicker,143,1127_half_amp.avi,orch11_half_amp.wav,orch,3,5.37937440000042,0,23,143,158,165,110,1,11,1,4.33985897333333,NaN,5979.5452311,2,NaN,NaN,NaN
23,4,8,NoFlicker,139,1192_half_amp.avi,choir5_half_amp.wav,choir,1,3.30770739999934,0,23,159,139,76,121,2,10,5,4.33985897333333,NaN,5987.0452633,2,NaN,NaN,NaN
23,5,8,NoFlicker,107,1265_half_amp.avi,acoustic16_half_amp.wav,acoustic,3,5.7911239999994,0,23,79,148,133,107,4,4,1,4.33985897333333,NaN,5992.4786676,2,NaN,NaN,NaN
23,6,8,NoFlicker,82,1449_half_amp.avi,dar17_half_amp.wav,dar,3,2.85491600000023,1,23,154,147,82,126,3,9,4,4.33985897333333,NaN,6001.6119813,2,NaN,NaN,NaN
23,7,8,NoFlicker,110,1443_half_amp.avi,orch3_half_amp.wav,orch,3,4.20872119999967,1,23,143,158,110,165,3,7,4,4.33985897333333,NaN,6007.0119986,2,NaN,NaN,NaN
23,8,8,NoFlicker,154,1074_half_amp.avi,dar5_half_amp.wav,dar,4,7.33971639999982,1,23,82,147,126,154,4,2,5,4.33985897333333,NaN,6013.7786966,2,NaN,NaN,NaN
23,9,8,NoFlicker,159,1091_half_amp.avi,choir8_half_amp.wav,choir,3,5.4346857999999,0,23,139,159,76,121,2,3,1,4.33985897333333,NaN,6023.0287323,2,NaN,NaN,NaN
23,10,8,NoFlicker,121,1354_half_amp.avi,choir22_half_amp.wav,choir,1,3.72720089999984,1,23,121,76,159,139,1,5,4,4.33985897333333,NaN,6030.745424,2,NaN,NaN,NaN
23,11,8,NoFlicker,165,1410_half_amp.avi,orch43_half_amp.wav,orch,1,7.11047680000047,0,23,158,165,143,110,2,6,2,4.33985897333333,NaN,6036.4121096,2,NaN,NaN,NaN
23,12,8,NoFlicker,133,1341_half_amp.avi,acoustic14_half_amp.wav,acoustic,1,4.18177269999978,1,23,133,79,148,107,1,8,5,4.33985897333333,NaN,6046.4121536,2,NaN,NaN,NaN
23,13,8,NoFlicker,158,1206_half_amp.avi,orch6_half_amp.wav,orch,3,3.60223449999921,1,23,110,165,158,143,3,15,1,4.33985897333333,NaN,6053.0288735,2,NaN,NaN,NaN
23,14,8,NoFlicker,79,1071_half_amp.avi,acoustic17_half_amp.wav,acoustic,3,6.68987500000003,1,23,107,148,79,133,3,13,5,4.33985897333333,NaN,6058.2788902,2,NaN,NaN,NaN
23,15,8,NoFlicker,147,1304_half_amp.avi,dar10_half_amp.wav,dar,1,3.5486647000007,1,23,147,154,126,82,1,16,5,4.33985897333333,NaN,6067.7289003,2,NaN,NaN,NaN
23,16,8,NoFlicker,76,1293_half_amp.avi,choir23_half_amp.wav,choir,1,4.44557789999999,0,23,139,159,121,76,4,1,4,4.33985897333333,NaN,6073.6622572,2,NaN,NaN,NaN
23,1,9,SyncTheta,70,1093_4Hz.avi,synth6_zero_4Hz.wav,synth,1,7.93539890000011,1,23,70,71,51,89,1,9,2,5.18539295,18.4568320733333,6312.8131013,3,NaN,NaN,NaN
23,2,9,SyncTheta,86,1278_4Hz.avi,ep35_zero_4Hz.wav,ep,1,4.11051560000033,0,23,87,86,65,25,2,15,2,5.18539295,18.4568320733333,6322.9631352,3,NaN,NaN,NaN
23,3,9,SyncTheta,55,1044_4Hz.avi,willow4_zero_4Hz.wav,willow,1,3.80283539999982,1,23,55,32,66,75,1,10,2,5.18539295,18.4568320733333,6329.2798258,3,NaN,NaN,NaN
23,4,9,SyncTheta,46,1210_4Hz.avi,guitar48_zero_4Hz.wav,guitar,2,3.27278600000045,1,23,67,46,73,77,2,13,5,5.18539295,18.4568320733333,6335.796528,3,NaN,NaN,NaN
23,5,9,SyncTheta,65,1013_4Hz.avi,ep22_zero_4Hz.wav,ep,3,4.51249689999986,0,23,87,25,86,65,4,2,2,5.18539295,18.4568320733333,6341.4465344,3,NaN,NaN,NaN
23,6,9,SyncTheta,71,1076_4Hz.avi,synth21_zero_4Hz.wav,synth,2,5.66773980000016,1,23,70,71,51,89,2,8,5,5.18539295,18.4568320733333,6348.5632607,3,NaN,NaN,NaN
23,7,9,SyncTheta,32,1360_4Hz.avi,willow10_zero_4Hz.wav,willow,3,3.37988959999984,0,23,55,66,75,32,4,6,2,5.18539295,18.4568320733333,6355.8465947,3,NaN,NaN,NaN
23,8,9,SyncTheta,51,1331_4Hz.avi,synth47_zero_4Hz.wav,synth,4,4.79042100000061,1,23,70,89,71,51,4,4,2,5.18539295,18.4568320733333,6361.2466712,3,NaN,NaN,NaN
23,9,9,SyncTheta,67,1310_4Hz.avi,guitar21_zero_4Hz.wav,guitar,4,5.8376902,1,23,73,46,77,67,4,7,1,5.18539295,18.4568320733333,6368.096665,3,NaN,NaN,NaN
23,10,9,SyncTheta,77,1008_4Hz.avi,guitar42_zero_4Hz.wav,guitar,3,5.05856260000019,0,23,46,77,73,67,2,12,2,5.18539295,18.4568320733333,6376.3299976,3,NaN,NaN,NaN
23,11,9,SyncTheta,75,1040_4Hz.avi,willow17_zero_4Hz.wav,willow,1,6.41289380000035,0,23,32,66,55,75,4,5,5,5.18539295,18.4568320733333,6384.3300627,3,NaN,NaN,NaN
23,12,9,SyncTheta,87,1142_4Hz.avi,ep3_zero_4Hz.wav,ep,3,4.15702210000018,0,23,25,87,86,65,2,3,2,5.18539295,18.4568320733333,6393.4134554,3,NaN,NaN,NaN
23,13,9,SyncTheta,66,1215_4Hz.avi,willow18_zero_4Hz.wav,willow,3,5.74827820000064,0,23,55,32,75,66,4,16,2,5.18539295,18.4568320733333,6400.1467888,3,NaN,NaN,NaN
23,14,9,SyncTheta,25,1094_4Hz.avi,ep15_zero_4Hz.wav,ep,3,6.56535100000019,1,23,65,87,25,86,3,11,4,5.18539295,18.4568320733333,6408.1134525,3,NaN,NaN,NaN
23,15,9,SyncTheta,89,1393_4Hz.avi,synth41_zero_4Hz.wav,synth,3,5.39663070000006,1,23,51,71,89,70,3,14,1,5.18539295,18.4568320733333,6417.4968469,3,NaN,NaN,NaN
23,16,9,SyncTheta,73,1369_4Hz.avi,guitar19_zero_4Hz.wav,guitar,1,4.84284109999953,0,23,67,77,46,73,4,1,1,5.18539295,18.4568320733333,6425.3968787,3,NaN,NaN,NaN
23,1,10,SyncDelta,45,1203_1.7Hz.avi,dar2_zero_1.7Hz.wav,dar,2,7.24409779999951,0,23,40,64,45,80,3,10,4,4.37877377833333,18.4568320733333,6576.4140844,3,NaN,NaN,NaN
23,2,10,SyncDelta,58,1323_1.7Hz.avi,acoustic29_zero_1.7Hz.wav,acoustic,1,5.95069030000013,0,23,21,39,60,58,4,16,4,4.37877377833333,18.4568320733333,6586.8141235,3,NaN,NaN,NaN
23,3,10,SyncDelta,91,1340_1.7Hz.avi,orch46_zero_1.7Hz.wav,orch,3,5.25391130000025,0,23,91,74,102,42,1,8,1,4.37877377833333,18.4568320733333,6595.3475172,3,NaN,NaN,NaN
23,4,10,SyncDelta,72,1097_1.7Hz.avi,choir29_zero_1.7Hz.wav,choir,2,5.53658970000015,1,23,62,72,38,69,2,13,5,4.37877377833333,18.4568320733333,6602.1975434,3,NaN,NaN,NaN
23,5,10,SyncDelta,21,1112_1.7Hz.avi,acoustic32_zero_1.7Hz.wav,acoustic,1,7.37912009999945,0,23,39,60,21,58,3,4,1,4.37877377833333,18.4568320733333,6610.2642088,3,NaN,NaN,NaN
23,6,10,SyncDelta,40,1239_1.7Hz.avi,dar6_zero_1.7Hz.wav,dar,2,6.76250830000026,0,23,64,80,40,45,3,9,2,4.37877377833333,18.4568320733333,6619.0476054,3,NaN,NaN,NaN
23,7,10,SyncDelta,42,1339_1.7Hz.avi,orch31_zero_1.7Hz.wav,orch,2,2.96728080000048,1,23,91,42,74,102,2,5,2,4.37877377833333,18.4568320733333,6627.7976712,3,NaN,NaN,NaN
23,8,10,SyncDelta,80,1082_1.7Hz.avi,dar15_zero_1.7Hz.wav,dar,4,4.51320359999954,1,23,45,40,64,80,4,3,1,4.37877377833333,18.4568320733333,6633.1476386,3,NaN,NaN,NaN
23,9,10,SyncDelta,62,1058_1.7Hz.avi,choir19_zero_1.7Hz.wav,choir,1,4.32962829999997,0,23,69,38,72,62,4,6,2,4.37877377833333,18.4568320733333,6640.1643257,3,NaN,NaN,NaN
23,10,10,SyncDelta,69,1216_1.7Hz.avi,choir32_zero_1.7Hz.wav,choir,4,5.04686529999981,0,23,69,62,72,38,1,7,1,4.37877377833333,18.4568320733333,6647.2643657,3,NaN,NaN,NaN
23,11,10,SyncDelta,102,1012_1.7Hz.avi,orch18_zero_1.7Hz.wav,orch,1,4.64679180000076,0,23,74,102,42,91,2,1,2,4.37877377833333,18.4568320733333,6654.7977384,3,NaN,NaN,NaN
23,12,10,SyncDelta,39,1061_1.7Hz.avi,acoustic11_zero_1.7Hz.wav,acoustic,1,4.09780369999953,0,23,21,58,60,39,4,12,4,4.37877377833333,18.4568320733333,6661.5477398,3,NaN,NaN,NaN
23,13,10,SyncDelta,74,1337_1.7Hz.avi,orch24_zero_1.7Hz.wav,orch,2,6.36980690000019,0,23,91,102,42,74,4,14,4,4.37877377833333,18.4568320733333,6667.4977886,3,NaN,NaN,NaN
23,14,10,SyncDelta,60,1249_1.7Hz.avi,acoustic20_zero_1.7Hz.wav,acoustic,3,4.04618680000021,0,23,39,21,58,60,4,15,4,4.37877377833333,18.4568320733333,6676.9978702,3,NaN,NaN,NaN
23,15,10,SyncDelta,64,1098_1.7Hz.avi,dar11_zero_1.7Hz.wav,dar,4,3.44660360000034,0,23,64,40,80,45,1,11,1,4.37877377833333,18.4568320733333,6683.2478231,3,NaN,NaN,NaN
23,16,10,SyncDelta,38,1184_1.7Hz.avi,choir33_zero_1.7Hz.wav,choir,4,4.87258769999971,0,23,72,69,38,62,3,2,1,4.37877377833333,18.4568320733333,6688.2145038,3,NaN,NaN,NaN
23,1,11,AsyncTheta,155,1042_4Hz.avi,synth10_oneeighty_4Hz.wav,synth,4,5.04120599999987,0,23,184,129,155,140,3,14,4,4.14718341833333,18.4568320733333,6835.3650613,3,NaN,NaN,NaN
23,2,11,AsyncTheta,176,1405_4Hz.avi,ep46_oneeighty_4Hz.wav,ep,4,6.7201341,0,23,180,173,176,144,3,13,1,4.14718341833333,18.4568320733333,6842.3817573,3,NaN,NaN,NaN
23,3,11,AsyncTheta,156,1060_4Hz.avi,willow7_oneeighty_4Hz.wav,willow,3,6.2629706000007,0,23,171,156,157,149,2,12,4,4.14718341833333,18.4568320733333,6850.6318156,3,NaN,NaN,NaN
23,4,11,AsyncTheta,172,1350_4Hz.avi,guitar10_oneeighty_4Hz.wav,guitar,4,4.11765220000052,0,23,161,172,170,183,2,10,4,4.14718341833333,18.4568320733333,6858.6818451,3,NaN,NaN,NaN
23,5,11,AsyncTheta,173,1348_4Hz.avi,ep31_oneeighty_4Hz.wav,ep,1,3.7796043999997,1,23,173,180,176,144,1,3,1,4.14718341833333,18.4568320733333,6866.031841,3,NaN,NaN,NaN
23,6,11,AsyncTheta,184,1052_4Hz.avi,synth40_oneeighty_4Hz.wav,synth,2,5.42209509999975,0,23,155,140,129,184,4,11,4,4.14718341833333,18.4568320733333,6871.7985276,3,NaN,NaN,NaN
23,7,11,AsyncTheta,171,1280_4Hz.avi,willow19_oneeighty_4Hz.wav,willow,1,5.7090975000001,1,23,171,157,156,149,1,9,1,4.14718341833333,18.4568320733333,6880.115237,3,NaN,NaN,NaN
23,8,11,AsyncTheta,140,1270_4Hz.avi,synth17_oneeighty_4Hz.wav,synth,4,4.65067880000061,0,23,184,140,129,155,2,2,4,4.14718341833333,18.4568320733333,6888.4652897,3,NaN,NaN,NaN
23,9,11,AsyncTheta,183,1374_4Hz.avi,guitar16_oneeighty_4Hz.wav,guitar,1,3.22057000000041,0,23,161,172,170,183,4,6,1,4.14718341833333,18.4568320733333,6894.7819488,3,NaN,NaN,NaN
23,10,11,AsyncTheta,170,1062_4Hz.avi,guitar3_oneeighty_4Hz.wav,guitar,4,3.86708379999982,0,23,183,170,161,172,2,7,1,4.14718341833333,18.4568320733333,6899.3986314,3,NaN,NaN,NaN
23,11,11,AsyncTheta,157,1225_4Hz.avi,willow14_oneeighty_4Hz.wav,willow,2,3.80947629999991,1,23,156,157,171,149,2,8,2,4.14718341833333,18.4568320733333,6905.1819846,3,NaN,NaN,NaN
23,12,11,AsyncTheta,144,1255_4Hz.avi,ep28_oneeighty_4Hz.wav,ep,4,3.66038079999998,0,23,180,176,144,173,3,4,1,4.14718341833333,18.4568320733333,6910.3486729,3,NaN,NaN,NaN
23,13,11,AsyncTheta,149,1200_4Hz.avi,willow8_oneeighty_4Hz.wav,willow,4,3.8603234000002,1,23,171,157,156,149,4,15,1,4.14718341833333,18.4568320733333,6916.132025,3,NaN,NaN,NaN
23,14,11,AsyncTheta,180,1006_4Hz.avi,ep4_oneeighty_4Hz.wav,ep,1,4.47007120000035,1,23,180,144,173,176,1,5,2,4.14718341833333,18.4568320733333,6923.3320563,3,NaN,NaN,NaN
23,15,11,AsyncTheta,129,1286_4Hz.avi,synth30_oneeighty_4Hz.wav,synth,1,5.55763850000039,0,23,155,184,129,140,3,16,4,4.14718341833333,18.4568320733333,6930.8487582,3,NaN,NaN,NaN
23,16,11,AsyncTheta,161,1433_4Hz.avi,guitar2_oneeighty_4Hz.wav,guitar,3,4.05014989999927,0,23,161,183,170,172,1,1,3,4.14718341833333,18.4568320733333,6938.0321098,3,NaN,NaN,NaN
23,1,12,NoFlicker,162,1358_half_amp.avi,dar7_half_amp.wav,dar,1,4.87441169999965,0,23,114,162,187,116,2,11,5,4.36023315166667,18.4568320733333,7094.0993944,3,NaN,NaN,NaN
23,2,12,NoFlicker,175,1103_half_amp.avi,acoustic10_half_amp.wav,acoustic,1,7.58248490000005,0,23,96,104,169,175,4,12,5,4.36023315166667,18.4568320733333,7101.2993909,3,NaN,NaN,NaN
23,3,12,NoFlicker,174,1119_half_amp.avi,orch45_half_amp.wav,orch,1,3.79252990000077,0,23,137,141,174,188,3,10,1,4.36023315166667,18.4568320733333,7110.6494428,3,NaN,NaN,NaN
23,4,12,NoFlicker,97,1368_half_amp.avi,choir30_half_amp.wav,choir,4,3.67996380000022,1,23,160,181,88,97,4,14,5,4.36023315166667,18.4568320733333,7116.9827909,3,NaN,NaN,NaN
23,5,12,NoFlicker,104,1111_half_amp.avi,acoustic31_half_amp.wav,acoustic,3,6.70481139999993,0,23,169,175,96,104,4,3,5,4.36023315166667,18.4568320733333,7122.3494788,3,NaN,NaN,NaN
23,6,12,NoFlicker,116,1420_half_amp.avi,dar18_half_amp.wav,dar,3,4.24800049999976,0,23,162,116,114,187,2,5,2,4.36023315166667,18.4568320733333,7131.0161656,3,NaN,NaN,NaN
23,7,12,NoFlicker,137,1303_half_amp.avi,orch10_half_amp.wav,orch,1,5.57536769999933,0,23,174,141,137,188,3,8,4,4.36023315166667,18.4568320733333,7137.7995257,3,NaN,NaN,NaN
23,8,12,NoFlicker,187,1164_half_amp.avi,dar12_half_amp.wav,dar,3,6.34908340000038,0,23,162,116,114,187,4,2,5,4.36023315166667,18.4568320733333,7144.9495885,3,NaN,NaN,NaN
23,9,12,NoFlicker,88,1191_half_amp.avi,choir20_half_amp.wav,choir,4,4.93326590000015,0,23,88,181,160,97,1,9,1,4.36023315166667,18.4568320733333,7154.5662642,3,NaN,NaN,NaN
23,10,12,NoFlicker,181,1168_half_amp.avi,choir1_half_amp.wav,choir,3,2.39165510000021,0,23,88,181,160,97,2,13,4,4.36023315166667,18.4568320733333,7162.1663253,3,NaN,NaN,NaN
23,11,12,NoFlicker,141,1401_half_amp.avi,orch12_half_amp.wav,orch,1,4.96520830000009,0,23,137,141,188,174,2,6,4,4.36023315166667,18.4568320733333,7167.9330023,3,NaN,NaN,NaN
23,12,12,NoFlicker,96,1027_half_amp.avi,acoustic40_half_amp.wav,acoustic,1,2.7699319000003,0,23,169,96,104,175,2,4,1,4.36023315166667,18.4568320733333,7174.649663,3,NaN,NaN,NaN
23,13,12,NoFlicker,188,1036_half_amp.avi,orch26_half_amp.wav,orch,3,4.11798559999988,1,23,137,174,188,141,3,16,2,4.36023315166667,18.4568320733333,7180.383058,3,NaN,NaN,NaN
23,14,12,NoFlicker,169,1083_half_amp.avi,acoustic43_half_amp.wav,acoustic,1,5.05430859999979,0,23,175,104,169,96,3,7,5,4.36023315166667,18.4568320733333,7187.6830793,3,NaN,NaN,NaN
23,15,12,NoFlicker,114,1322_half_amp.avi,dar14_half_amp.wav,dar,4,2.6701751999999,0,23,116,187,114,162,3,15,1,4.36023315166667,18.4568320733333,7194.7497407,3,NaN,NaN,NaN
23,16,12,NoFlicker,160,1421_half_amp.avi,choir13_half_amp.wav,choir,1,2.73204519999945,1,23,160,88,97,181,1,1,4,4.36023315166667,18.4568320733333,7200.8164303,3,NaN,NaN,NaN
