ParticipantID,TrialNumber,BlockNumber,Condition,ClipID,VideoFile,SoundFile,SoundCategory,Response,RT,Accuracy,ConditionID,Frame1,Frame2,Frame3,Frame4,CorrectKey,EncodingPosition,Rating,BlockDuration,ExperimentDuration,MemoryTestOnset,RunNumber,Age,Handedness,Sex
13,1,1,SyncTheta,36,1284_4Hz.avi,orch29_zero_4Hz.wav,orch,1,6.66978089999975,1,13,36,17,30,81,1,1,3,6.655504415,NaN,8509.7323686,1,NaN,NaN,NaN
13,2,1,SyncTheta,30,1016_4Hz.avi,orch14_zero_4Hz.wav,orch,2,3.51779759999954,0,13,81,17,36,30,4,3,1,6.655504415,NaN,8518.4823858,1,NaN,NaN,NaN
13,3,1,SyncTheta,29,1158_4Hz.avi,dar23_zero_4Hz.wav,dar,4,7.21077669999977,0,13,49,29,34,2,2,5,4,6.655504415,NaN,8524.7324206,1,NaN,NaN,NaN
13,4,1,SyncTheta,19,1247_4Hz.avi,choir38_zero_4Hz.wav,choir,2,4.06589059999897,0,13,63,10,19,12,3,16,4,6.655504415,NaN,8534.1990709,1,NaN,NaN,NaN
13,5,1,SyncTheta,44,1254_4Hz.avi,acoustic48_zero_4Hz.wav,acoustic,4,3.09373290000076,0,13,1,5,44,20,3,2,4,6.655504415,NaN,8540.2990639,1,NaN,NaN,NaN
13,6,1,SyncTheta,12,1077_4Hz.avi,choir18_zero_4Hz.wav,choir,1,3.50101830000131,1,13,12,19,10,63,1,7,3,6.655504415,NaN,8546.2991374,1,NaN,NaN,NaN
13,7,1,SyncTheta,81,1444_4Hz.avi,orch4_zero_4Hz.wav,orch,1,2.96346840000115,1,13,81,17,30,36,1,10,5,6.655504415,NaN,8551.6158031,1,NaN,NaN,NaN
13,8,1,SyncTheta,1,1064_4Hz.avi,acoustic12_zero_4Hz.wav,acoustic,3,5.30623419999938,1,13,20,44,1,5,3,9,1,6.655504415,NaN,8556.6658136,1,NaN,NaN,NaN
13,9,1,SyncTheta,2,1431_4Hz.avi,dar24_zero_4Hz.wav,dar,2,5.54455229999985,1,13,34,2,29,49,2,15,4,6.655504415,NaN,8563.4491972,1,NaN,NaN,NaN
13,10,1,SyncTheta,5,1381_4Hz.avi,acoustic1_zero_4Hz.wav,acoustic,4,3.48571679999986,0,13,20,5,1,44,2,8,1,6.655504415,NaN,8570.3491959,1,NaN,NaN,NaN
13,11,1,SyncTheta,17,1162_4Hz.avi,orch1_zero_4Hz.wav,orch,1,2.72187389999999,0,13,30,36,17,81,3,14,3,6.655504415,NaN,8576.1825685,1,NaN,NaN,NaN
13,12,1,SyncTheta,10,1179_4Hz.avi,choir4_zero_4Hz.wav,choir,3,3.57241310000063,0,13,63,10,19,12,2,13,3,6.655504415,NaN,8582.3992363,1,NaN,NaN,NaN
13,13,1,SyncTheta,49,1221_4Hz.avi,dar21_zero_4Hz.wav,dar,2,5.99989470000037,0,13,49,29,34,2,1,6,2,6.655504415,NaN,8589.3159037,1,NaN,NaN,NaN
13,14,1,SyncTheta,63,1128_4Hz.avi,choir26_zero_4Hz.wav,choir,3,6.67976140000064,1,13,12,19,63,10,3,4,3,6.655504415,NaN,8597.1992897,1,NaN,NaN,NaN
13,15,1,SyncTheta,34,1319_4Hz.avi,dar22_zero_4Hz.wav,dar,4,8.85598150000078,0,13,49,34,29,2,2,12,3,6.655504415,NaN,8606.5660096,1,NaN,NaN,NaN
13,16,1,SyncTheta,20,1236_4Hz.avi,acoustic25_zero_4Hz.wav,acoustic,2,4.2065451999988,1,13,44,20,1,5,2,11,5,6.655504415,NaN,8618.7160588,1,NaN,NaN,NaN
13,1,2,AsyncTheta,165,1410_4Hz.avi,orch43_oneeighty_4Hz.wav,orch,4,8.34749829999964,0,13,137,165,143,145,2,3,3,5.06917510166667,NaN,8797.0499865,1,NaN,NaN,NaN
13,2,2,AsyncTheta,143,1127_4Hz.avi,orch11_oneeighty_4Hz.wav,orch,2,4.8651418999998,1,13,137,143,165,145,2,8,5,5.06917510166667,NaN,8808.0500697,1,NaN,NaN,NaN
13,3,2,AsyncTheta,154,1074_4Hz.avi,dar5_oneeighty_4Hz.wav,dar,2,7.31254000000081,0,13,154,114,136,126,1,2,5,5.06917510166667,NaN,8815.58341,1,NaN,NaN,NaN
13,4,2,AsyncTheta,159,1091_4Hz.avi,choir8_oneeighty_4Hz.wav,choir,1,4.93677460000072,1,13,159,88,121,124,1,14,1,5.06917510166667,NaN,8825.516759,1,NaN,NaN,NaN
13,5,2,AsyncTheta,96,1027_4Hz.avi,acoustic40_oneeighty_4Hz.wav,acoustic,2,6.73357709999982,1,13,148,96,113,107,2,4,2,5.06917510166667,NaN,8832.2168692,1,NaN,NaN,NaN
13,6,2,AsyncTheta,124,1183_4Hz.avi,choir24_oneeighty_4Hz.wav,choir,4,6.97934050000003,0,13,159,88,124,121,3,6,4,5.06917510166667,NaN,8841.783555,1,NaN,NaN,NaN
13,7,2,AsyncTheta,145,1352_4Hz.avi,orch39_oneeighty_4Hz.wav,orch,1,5.33451849999983,0,13,165,143,137,145,4,10,5,5.06917510166667,NaN,8850.4668785,1,NaN,NaN,NaN
13,8,2,AsyncTheta,148,1121_4Hz.avi,acoustic26_oneeighty_4Hz.wav,acoustic,1,10.6314614000003,0,13,113,148,107,96,2,7,4,5.06917510166667,NaN,8858.2668754,1,NaN,NaN,NaN
13,9,2,AsyncTheta,114,1322_4Hz.avi,dar14_oneeighty_4Hz.wav,dar,2,5.55057840000154,0,13,126,136,114,154,3,15,2,5.06917510166667,NaN,8871.3002931,1,NaN,NaN,NaN
13,10,2,AsyncTheta,107,1265_4Hz.avi,acoustic16_oneeighty_4Hz.wav,acoustic,3,6.33477089999906,0,13,113,107,148,96,2,5,2,5.06917510166667,NaN,8879.7503106,1,NaN,NaN,NaN
13,11,2,AsyncTheta,137,1303_4Hz.avi,orch10_oneeighty_4Hz.wav,orch,2,4.86414490000061,0,13,145,143,165,137,4,16,5,5.06917510166667,NaN,8887.9003694,1,NaN,NaN,NaN
13,12,2,AsyncTheta,88,1191_4Hz.avi,choir20_oneeighty_4Hz.wav,choir,4,3.80192389999866,0,13,124,88,159,121,2,11,4,5.06917510166667,NaN,8895.4503968,1,NaN,NaN,NaN
13,13,2,AsyncTheta,136,1175_4Hz.avi,dar4_oneeighty_4Hz.wav,dar,3,4.22434070000054,0,13,126,136,114,154,2,12,2,5.06917510166667,NaN,8900.8837216,1,NaN,NaN,NaN
13,14,2,AsyncTheta,121,1354_4Hz.avi,choir22_oneeighty_4Hz.wav,choir,4,6.59667489999993,1,13,88,124,159,121,4,1,2,5.06917510166667,NaN,8908.0670564,1,NaN,NaN,NaN
13,15,2,AsyncTheta,126,1298_4Hz.avi,dar9_oneeighty_4Hz.wav,dar,2,3.79448330000014,0,13,114,154,136,126,4,13,3,5.06917510166667,NaN,8917.9004523,1,NaN,NaN,NaN
13,16,2,AsyncTheta,113,1037_4Hz.avi,acoustic23_oneeighty_4Hz.wav,acoustic,4,3.23072540000067,1,13,96,148,107,113,4,9,5,5.06917510166667,NaN,8923.9504733,1,NaN,NaN,NaN
13,1,3,NoFlicker,118,1020_half_amp.avi,willow22_half_amp.wav,willow,1,5.73892069999965,1,13,118,178,130,149,1,9,3,4.644878305,NaN,9095.0677466,1,NaN,NaN,NaN
13,2,3,NoFlicker,130,1081_half_amp.avi,willow5_half_amp.wav,willow,3,3.32714060000035,1,13,149,178,130,118,3,11,1,4.644878305,NaN,9102.3511396,1,NaN,NaN,NaN
13,3,3,NoFlicker,186,1031_half_amp.avi,synth7_half_amp.wav,synth,3,4.98103570000058,0,13,186,129,128,111,1,1,4,4.644878305,NaN,9108.2845029,1,NaN,NaN,NaN
13,4,3,NoFlicker,161,1433_half_amp.avi,guitar2_half_amp.wav,guitar,2,6.38961059999929,1,13,151,161,185,112,2,16,1,4.644878305,NaN,9116.4678127,1,NaN,NaN,NaN
13,5,3,NoFlicker,144,1255_half_amp.avi,ep28_half_amp.wav,ep,2,7.38164809999944,0,13,144,189,138,117,1,2,5,4.644878305,NaN,9125.3012087,1,NaN,NaN,NaN
13,6,3,NoFlicker,185,1131_half_amp.avi,guitar45_half_amp.wav,guitar,4,4.13407370000095,1,13,112,151,161,185,4,12,1,4.644878305,NaN,9135.3012446,1,NaN,NaN,NaN
13,7,3,NoFlicker,149,1200_half_amp.avi,willow8_half_amp.wav,willow,2,5.23783759999969,0,13,149,178,118,130,1,13,3,4.644878305,NaN,9141.8846319,1,NaN,NaN,NaN
13,8,3,NoFlicker,138,1149_half_amp.avi,ep2_half_amp.wav,ep,1,5.63096049999876,0,13,189,117,138,144,3,6,2,4.644878305,NaN,9149.4179347,1,NaN,NaN,NaN
13,9,3,NoFlicker,129,1286_half_amp.avi,synth30_half_amp.wav,synth,1,1.00300769999922,0,13,128,111,129,186,3,10,5,4.644878305,NaN,9156.8846543,1,NaN,NaN,NaN
13,10,3,NoFlicker,189,1051_half_amp.avi,ep14_half_amp.wav,ep,3,5.16480909999882,1,13,138,117,189,144,3,5,5,4.644878305,NaN,9161.7347016,1,NaN,NaN,NaN
13,11,3,NoFlicker,178,1057_half_amp.avi,willow9_half_amp.wav,willow,4,3.17588890000115,1,13,118,149,130,178,4,15,5,4.644878305,NaN,9169.218033,1,NaN,NaN,NaN
13,12,3,NoFlicker,151,1259_half_amp.avi,guitar43_half_amp.wav,guitar,3,2.37789349999912,0,13,151,185,161,112,1,14,1,4.644878305,NaN,9175.2014467,1,NaN,NaN,NaN
13,13,3,NoFlicker,111,1390_half_amp.avi,synth3_half_amp.wav,synth,1,4.28244280000035,0,13,186,111,129,128,2,3,5,4.644878305,NaN,9180.0180747,1,NaN,NaN,NaN
13,14,3,NoFlicker,112,1388_half_amp.avi,guitar39_half_amp.wav,guitar,3,4.88775250000072,1,13,151,185,112,161,3,4,5,4.644878305,NaN,9186.1680728,1,NaN,NaN,NaN
13,15,3,NoFlicker,128,1269_half_amp.avi,synth14_half_amp.wav,synth,1,4.61177830000088,1,13,128,186,111,129,1,7,4,4.644878305,NaN,9193.7180959,1,NaN,NaN,NaN
13,16,3,NoFlicker,117,1144_half_amp.avi,ep39_half_amp.wav,ep,2,4.37713640000038,1,13,144,117,189,138,2,8,1,4.644878305,NaN,9201.5681277,1,NaN,NaN,NaN
13,1,4,SyncDelta,22,1212_1.7Hz.avi,willow20_zero_1.7Hz.wav,willow,4,6.58570700000018,0,13,55,22,66,94,2,6,2,4.88448034666667,NaN,9374.9854244,1,NaN,NaN,NaN
13,2,4,SyncDelta,94,1109_1.7Hz.avi,willow6_zero_1.7Hz.wav,willow,2,4.02851089999967,0,13,55,66,94,22,3,7,5,4.88448034666667,NaN,9384.7021558,1,NaN,NaN,NaN
13,3,4,SyncDelta,35,1039_1.7Hz.avi,synth5_zero_1.7Hz.wav,synth,1,8.25767820000146,1,13,35,70,71,100,1,2,1,4.88448034666667,NaN,9391.7855145,1,NaN,NaN,NaN
13,4,4,SyncDelta,90,1273_1.7Hz.avi,guitar23_zero_1.7Hz.wav,guitar,2,5.07001479999963,0,13,73,67,7,90,4,15,2,4.88448034666667,NaN,9402.4022355,1,NaN,NaN,NaN
13,5,4,SyncDelta,65,1013_1.7Hz.avi,ep22_zero_1.7Hz.wav,ep,1,5.74624129999938,1,13,65,16,101,86,1,8,4,4.88448034666667,NaN,9409.0689368,1,NaN,NaN,NaN
13,6,4,SyncDelta,73,1369_1.7Hz.avi,guitar19_zero_1.7Hz.wav,guitar,1,4.59855179999977,0,13,67,7,73,90,3,9,2,4.88448034666667,NaN,9416.7856029,1,NaN,NaN,NaN
13,7,4,SyncDelta,55,1044_1.7Hz.avi,willow4_zero_1.7Hz.wav,willow,3,7.52878400000009,0,13,22,55,66,94,2,11,3,4.88448034666667,NaN,9423.8022986,1,NaN,NaN,NaN
13,8,4,SyncDelta,16,1442_1.7Hz.avi,ep34_zero_1.7Hz.wav,ep,2,4.76036900000145,1,13,65,16,101,86,2,12,2,4.88448034666667,NaN,9433.7690106,1,NaN,NaN,NaN
13,9,4,SyncDelta,70,1093_1.7Hz.avi,synth6_zero_1.7Hz.wav,synth,3,4.67174859999977,0,13,35,70,100,71,2,5,2,4.88448034666667,NaN,9440.7357264,1,NaN,NaN,NaN
13,10,4,SyncDelta,86,1278_1.7Hz.avi,ep35_zero_1.7Hz.wav,ep,2,8.92994180000096,0,13,101,16,65,86,4,10,4,4.88448034666667,NaN,9447.6524333,1,NaN,NaN,NaN
13,11,4,SyncDelta,66,1215_1.7Hz.avi,willow18_zero_1.7Hz.wav,willow,3,4.91415469999993,0,13,94,66,55,22,2,13,5,4.88448034666667,NaN,9459.3857978,1,NaN,NaN,NaN
13,12,4,SyncDelta,7,1017_1.7Hz.avi,guitar47_zero_1.7Hz.wav,guitar,4,3.53791490000003,1,13,73,67,90,7,4,14,2,4.88448034666667,NaN,9466.5691462,1,NaN,NaN,NaN
13,13,4,SyncDelta,100,1107_1.7Hz.avi,synth23_zero_1.7Hz.wav,synth,3,3.42218759999923,1,13,71,35,100,70,3,3,1,4.88448034666667,NaN,9473.2191127,1,NaN,NaN,NaN
13,14,4,SyncDelta,67,1310_1.7Hz.avi,guitar21_zero_1.7Hz.wav,guitar,4,3.87031889999889,0,13,7,90,67,73,3,1,2,4.88448034666667,NaN,9479.135806,1,NaN,NaN,NaN
13,15,4,SyncDelta,71,1076_1.7Hz.avi,synth21_zero_1.7Hz.wav,synth,3,6.28094670000064,0,13,100,70,35,71,4,4,1,4.88448034666667,NaN,9485.9192164,1,NaN,NaN,NaN
13,16,4,SyncDelta,101,1295_1.7Hz.avi,ep40_zero_1.7Hz.wav,ep,2,4.85951829999976,1,13,65,101,16,86,2,16,4,4.88448034666667,NaN,9494.2359156,1,NaN,NaN,NaN
13,1,5,AsyncTheta,141,1401_4Hz.avi,orch12_oneeighty_4Hz.wav,orch,2,4.8807265000014,1,13,158,141,174,188,2,1,4,4.95163305166667,NaN,9758.1367731,2,NaN,NaN,NaN
13,2,5,AsyncTheta,188,1036_4Hz.avi,orch26_oneeighty_4Hz.wav,orch,4,5.15287519999947,1,13,158,174,141,188,4,9,4,4.95163305166667,NaN,9766.1535637,2,NaN,NaN,NaN
13,3,5,AsyncTheta,162,1358_4Hz.avi,dar7_oneeighty_4Hz.wav,dar,3,3.32675200000085,1,13,187,116,162,147,3,3,1,4.95163305166667,NaN,9773.0868756,2,NaN,NaN,NaN
13,4,5,AsyncTheta,181,1168_4Hz.avi,choir1_oneeighty_4Hz.wav,choir,3,5.92437529999916,1,13,139,97,181,160,3,15,5,4.95163305166667,NaN,9779.7535386,2,NaN,NaN,NaN
13,5,5,AsyncTheta,104,1111_4Hz.avi,acoustic31_oneeighty_4Hz.wav,acoustic,3,8.57634289999987,0,13,133,169,175,104,4,2,2,4.95163305166667,NaN,9787.3869431,2,NaN,NaN,NaN
13,6,5,AsyncTheta,139,1192_4Hz.avi,choir5_oneeighty_4Hz.wav,choir,3,3.38134840000021,0,13,139,160,181,97,1,7,2,4.95163305166667,NaN,9798.4869126,2,NaN,NaN,NaN
13,7,5,AsyncTheta,174,1119_4Hz.avi,orch45_oneeighty_4Hz.wav,orch,1,4.71974990000126,1,13,174,188,158,141,1,11,1,4.95163305166667,NaN,9803.5202858,2,NaN,NaN,NaN
13,8,5,AsyncTheta,133,1341_4Hz.avi,acoustic14_oneeighty_4Hz.wav,acoustic,2,7.52164439999979,0,13,104,169,133,175,3,12,4,4.95163305166667,NaN,9810.4536763,2,NaN,NaN,NaN
13,9,5,AsyncTheta,147,1304_4Hz.avi,dar10_oneeighty_4Hz.wav,dar,4,5.87487680000049,1,13,116,162,187,147,4,10,2,4.95163305166667,NaN,9821.2036859,2,NaN,NaN,NaN
13,10,5,AsyncTheta,169,1083_4Hz.avi,acoustic43_oneeighty_4Hz.wav,acoustic,3,2.66285860000062,0,13,104,169,133,175,2,6,3,4.95163305166667,NaN,9829.3203867,2,NaN,NaN,NaN
13,11,5,AsyncTheta,158,1206_4Hz.avi,orch6_oneeighty_4Hz.wav,orch,2,3.06306450000011,1,13,174,158,141,188,2,13,1,4.95163305166667,NaN,9834.6537623,2,NaN,NaN,NaN
13,12,5,AsyncTheta,160,1421_4Hz.avi,choir13_oneeighty_4Hz.wav,choir,3,4.46803460000046,0,13,181,97,139,160,4,14,1,4.95163305166667,NaN,9840.2204185,2,NaN,NaN,NaN
13,13,5,AsyncTheta,187,1164_4Hz.avi,dar12_oneeighty_4Hz.wav,dar,2,4.8726929000004,1,13,116,187,162,147,2,4,2,4.95163305166667,NaN,9846.5204437,2,NaN,NaN,NaN
13,14,5,AsyncTheta,97,1368_4Hz.avi,choir30_oneeighty_4Hz.wav,choir,4,3.33300419999978,1,13,139,181,160,97,4,5,5,4.95163305166667,NaN,9853.0204688,2,NaN,NaN,NaN
13,15,5,AsyncTheta,116,1420_4Hz.avi,dar18_oneeighty_4Hz.wav,dar,2,3.40915450000102,0,13,116,162,187,147,1,8,3,4.95163305166667,NaN,9858.4871309,2,NaN,NaN,NaN
13,16,5,AsyncTheta,175,1103_4Hz.avi,acoustic10_oneeighty_4Hz.wav,acoustic,1,5.4905949999993,0,13,169,133,175,104,3,16,1,4.95163305166667,NaN,9864.6871976,2,NaN,NaN,NaN
13,1,6,SyncDelta,108,1415_1.7Hz.avi,willow3_zero_1.7Hz.wav,willow,1,21.2708362000012,0,13,92,18,108,27,3,1,2,5.1611509,NaN,10033.8378048,2,NaN,NaN,NaN
13,2,6,SyncDelta,92,1030_1.7Hz.avi,willow23_zero_1.7Hz.wav,willow,1,4.9293245000008,0,13,18,27,92,108,3,5,2,5.1611509,NaN,10058.0545396,2,NaN,NaN,NaN
13,3,6,SyncDelta,95,1359_1.7Hz.avi,synth33_zero_1.7Hz.wav,synth,1,7.08787969999867,0,13,8,95,109,50,2,3,2,5.1611509,NaN,10064.9379131,2,NaN,NaN,NaN
13,4,6,SyncDelta,15,1422_1.7Hz.avi,guitar37_zero_1.7Hz.wav,guitar,3,7.17193420000149,0,13,15,3,84,93,1,14,1,5.1611509,NaN,10075.3046334,2,NaN,NaN,NaN
13,5,6,SyncDelta,24,1217_1.7Hz.avi,ep44_zero_1.7Hz.wav,ep,1,2.49421449999863,1,13,24,99,6,106,1,2,2,5.1611509,NaN,10085.5879509,2,NaN,NaN,NaN
13,6,6,SyncDelta,3,1156_1.7Hz.avi,guitar31_zero_1.7Hz.wav,guitar,4,2.71860539999943,0,13,3,93,84,15,1,10,5,5.1611509,NaN,10090.4713281,2,NaN,NaN,NaN
13,7,6,SyncDelta,27,1202_1.7Hz.avi,willow16_zero_1.7Hz.wav,willow,1,5.61098719999973,0,13,108,27,18,92,2,8,2,5.1611509,NaN,10096.0713249,2,NaN,NaN,NaN
13,8,6,SyncDelta,99,1173_1.7Hz.avi,ep6_zero_1.7Hz.wav,ep,3,9.89747160000115,0,13,99,106,24,6,1,11,3,5.1611509,NaN,10104.7880773,2,NaN,NaN,NaN
13,9,6,SyncDelta,8,1252_1.7Hz.avi,synth25_zero_1.7Hz.wav,synth,1,5.21368940000139,1,13,8,50,109,95,1,16,4,5.1611509,NaN,10116.8714257,2,NaN,NaN,NaN
13,10,6,SyncDelta,6,1007_1.7Hz.avi,ep8_zero_1.7Hz.wav,ep,3,9.81012650000048,0,13,99,6,106,24,2,6,3,5.1611509,NaN,10124.7214558,2,NaN,NaN,NaN
13,11,6,SyncDelta,18,1101_1.7Hz.avi,willow13_zero_1.7Hz.wav,willow,2,5.41705259999981,0,13,18,108,27,92,1,9,5,5.1611509,NaN,10137.0048527,2,NaN,NaN,NaN
13,12,6,SyncDelta,93,1046_1.7Hz.avi,guitar18_zero_1.7Hz.wav,guitar,3,7.56102959999953,0,13,84,15,3,93,4,13,1,5.1611509,NaN,10144.8548862,2,NaN,NaN,NaN
13,13,6,SyncDelta,50,1049_1.7Hz.avi,synth43_zero_1.7Hz.wav,synth,3,3.89132330000029,1,13,109,95,50,8,3,7,4,5.1611509,NaN,10153.8882036,2,NaN,NaN,NaN
13,14,6,SyncDelta,84,1294_1.7Hz.avi,guitar6_zero_1.7Hz.wav,guitar,2,4.24858979999954,0,13,84,3,93,15,1,4,2,5.1611509,NaN,10160.6049206,2,NaN,NaN,NaN
13,15,6,SyncDelta,109,1299_1.7Hz.avi,synth18_zero_1.7Hz.wav,synth,2,3.38492860000042,1,13,50,109,8,95,2,15,4,5.1611509,NaN,10167.3216395,2,NaN,NaN,NaN
13,16,6,SyncDelta,106,1113_1.7Hz.avi,ep29_zero_1.7Hz.wav,ep,2,6.32893460000014,1,13,6,106,24,99,2,12,4,5.1611509,NaN,10173.6049954,2,NaN,NaN,NaN
13,1,7,NoFlicker,152,1445_half_amp.avi,willow2_half_amp.wav,willow,1,11.3608048999995,0,13,156,152,153,167,2,3,2,5.34646871666667,NaN,10372.3890315,2,NaN,NaN,NaN
13,2,7,NoFlicker,153,1157_half_amp.avi,willow1_half_amp.wav,willow,3,4.28287450000062,0,13,152,153,156,167,2,4,4,5.34646871666667,NaN,10385.5723867,2,NaN,NaN,NaN
13,3,7,NoFlicker,140,1270_half_amp.avi,synth17_half_amp.wav,synth,4,6.13613459999942,0,13,135,140,163,131,2,1,5,5.34646871666667,NaN,10392.4224383,2,NaN,NaN,NaN
13,4,7,NoFlicker,168,1204_half_amp.avi,guitar36_half_amp.wav,guitar,2,7.92150510000101,1,13,179,168,164,170,2,16,4,5.34646871666667,NaN,10401.4391604,2,NaN,NaN,NaN
13,5,7,NoFlicker,150,1394_half_amp.avi,ep11_half_amp.wav,ep,4,7.59256129999994,1,13,166,177,173,150,4,6,1,5.34646871666667,NaN,10411.039195,2,NaN,NaN,NaN
13,6,7,NoFlicker,164,1087_half_amp.avi,guitar17_half_amp.wav,guitar,2,3.45311150000089,1,13,179,164,170,168,2,8,4,5.34646871666667,NaN,10421.9558747,2,NaN,NaN,NaN
13,7,7,NoFlicker,167,1177_half_amp.avi,willow24_half_amp.wav,willow,4,4.56392950000009,1,13,152,156,153,167,4,7,5,5.34646871666667,NaN,10427.9225705,2,NaN,NaN,NaN
13,8,7,NoFlicker,166,1227_half_amp.avi,ep5_half_amp.wav,ep,2,6.95816670000022,0,13,166,177,150,173,1,13,3,5.34646871666667,NaN,10435.5725664,2,NaN,NaN,NaN
13,9,7,NoFlicker,135,1154_half_amp.avi,synth38_half_amp.wav,synth,4,7.21275210000022,1,13,140,131,163,135,4,15,4,5.34646871666667,NaN,10444.3893192,2,NaN,NaN,NaN
13,10,7,NoFlicker,173,1348_half_amp.avi,ep31_half_amp.wav,ep,3,5.09479189999911,1,13,166,150,173,177,3,11,2,5.34646871666667,NaN,10454.389354,2,NaN,NaN,NaN
13,11,7,NoFlicker,156,1060_half_amp.avi,willow7_half_amp.wav,willow,1,5.08079910000015,0,13,152,156,153,167,2,12,5,5.34646871666667,NaN,10462.1060253,2,NaN,NaN,NaN
13,12,7,NoFlicker,179,1186_half_amp.avi,guitar30_half_amp.wav,guitar,2,4.75460610000118,1,13,164,179,168,170,2,9,2,5.34646871666667,NaN,10468.8394091,2,NaN,NaN,NaN
13,13,7,NoFlicker,163,1441_half_amp.avi,synth27_half_amp.wav,synth,2,3.50790339999912,1,13,131,163,135,140,2,2,1,5.34646871666667,NaN,10476.7560842,2,NaN,NaN,NaN
13,14,7,NoFlicker,170,1062_half_amp.avi,guitar3_half_amp.wav,guitar,2,7.04412690000026,0,13,179,168,164,170,4,5,2,5.34646871666667,NaN,10481.7894524,2,NaN,NaN,NaN
13,15,7,NoFlicker,131,1366_half_amp.avi,synth34_half_amp.wav,synth,4,3.68293409999933,0,13,135,131,163,140,2,10,5,5.34646871666667,NaN,10492.0061526,2,NaN,NaN,NaN
13,16,7,NoFlicker,177,1283_half_amp.avi,ep38_half_amp.wav,ep,2,3.43282569999974,1,13,150,177,173,166,2,14,3,5.34646871666667,NaN,10497.3728377,2,NaN,NaN,NaN
13,1,8,SyncTheta,33,1136_4Hz.avi,orch38_zero_4Hz.wav,orch,2,3.96879439999975,1,13,85,33,42,57,2,1,5,4.14080123166667,NaN,10644.6400551,2,NaN,NaN,NaN
13,2,8,SyncTheta,85,1383_4Hz.avi,orch23_zero_4Hz.wav,orch,3,3.29993500000091,1,13,42,33,85,57,3,5,2,4.14080123166667,NaN,10650.0400536,2,NaN,NaN,NaN
13,3,8,SyncTheta,40,1239_4Hz.avi,dar6_zero_4Hz.wav,dar,4,3.64152210000066,1,13,31,43,56,40,4,4,1,4.14080123166667,NaN,10656.2900512,2,NaN,NaN,NaN
13,4,8,SyncTheta,52,1387_4Hz.avi,choir2_zero_4Hz.wav,choir,3,3.65322940000078,1,13,13,38,52,68,3,16,1,4.14080123166667,NaN,10662.1067467,2,NaN,NaN,NaN
13,5,8,SyncTheta,23,1330_4Hz.avi,acoustic47_zero_4Hz.wav,acoustic,3,4.35692930000005,0,13,23,47,9,21,1,3,2,4.14080123166667,NaN,10669.1067584,2,NaN,NaN,NaN
13,6,8,SyncTheta,13,1201_4Hz.avi,choir7_zero_4Hz.wav,choir,4,3.60544039999877,0,13,38,13,68,52,2,11,1,4.14080123166667,NaN,10676.690102,2,NaN,NaN,NaN
13,7,8,SyncTheta,42,1339_4Hz.avi,orch31_zero_4Hz.wav,orch,4,5.92748430000029,0,13,57,42,33,85,2,7,3,4.14080123166667,NaN,10681.9234567,2,NaN,NaN,NaN
13,8,8,SyncTheta,47,1292_4Hz.avi,acoustic28_zero_4Hz.wav,acoustic,4,3.56615809999857,0,13,47,21,23,9,1,9,1,4.14080123166667,NaN,10690.8735135,2,NaN,NaN,NaN
13,9,8,SyncTheta,43,1141_4Hz.avi,dar13_zero_4Hz.wav,dar,2,4.46881409999878,0,13,40,56,43,31,3,13,4,4.14080123166667,NaN,10697.39023,2,NaN,NaN,NaN
13,10,8,SyncTheta,9,1054_4Hz.avi,acoustic44_zero_4Hz.wav,acoustic,1,6.96160799999961,0,13,21,23,47,9,4,8,1,4.14080123166667,NaN,10703.6068661,2,NaN,NaN,NaN
13,11,8,SyncTheta,57,1309_4Hz.avi,orch7_zero_4Hz.wav,orch,2,4.26275100000021,0,13,85,33,42,57,4,10,4,4.14080123166667,NaN,10712.8902305,2,NaN,NaN,NaN
13,12,8,SyncTheta,38,1184_4Hz.avi,choir33_zero_4Hz.wav,choir,2,4.37818169999991,0,13,38,52,68,13,1,15,4,4.14080123166667,NaN,10718.7902767,2,NaN,NaN,NaN
13,13,8,SyncTheta,31,1404_4Hz.avi,dar8_zero_4Hz.wav,dar,2,2.4004391999988,1,13,40,31,43,56,2,6,4,4.14080123166667,NaN,10724.9569396,2,NaN,NaN,NaN
13,14,8,SyncTheta,68,1023_4Hz.avi,choir3_zero_4Hz.wav,choir,2,6.28348940000069,1,13,52,68,13,38,2,2,2,4.14080123166667,NaN,10729.8902891,2,NaN,NaN,NaN
13,15,8,SyncTheta,56,1063_4Hz.avi,dar16_zero_4Hz.wav,dar,4,6.28809860000001,0,13,40,56,31,43,2,12,1,4.14080123166667,NaN,10737.723712,2,NaN,NaN,NaN
13,16,8,SyncTheta,21,1112_4Hz.avi,acoustic32_zero_4Hz.wav,acoustic,2,3.02550060000067,0,13,47,9,23,21,4,14,2,4.14080123166667,NaN,10746.4404218,2,NaN,NaN,NaN
13,1,9,AsyncTheta,134,1026_4Hz.avi,orch16_oneeighty_4Hz.wav,orch,4,5.19228860000112,1,13,110,192,142,134,4,2,3,5.53229620833333,20.0169035833333,11053.9081013,3,NaN,NaN,NaN
13,2,9,AsyncTheta,192,1231_4Hz.avi,orch32_oneeighty_4Hz.wav,orch,1,8.00872600000002,0,13,142,134,192,110,3,5,5,5.53229620833333,20.0169035833333,11061.1414879,3,NaN,NaN,NaN
13,3,9,AsyncTheta,191,1314_4Hz.avi,dar19_oneeighty_4Hz.wav,dar,3,5.92783410000084,1,13,82,103,191,122,3,3,1,5.53229620833333,20.0169035833333,11071.4081667,3,NaN,NaN,NaN
13,4,9,AsyncTheta,98,1014_4Hz.avi,choir41_oneeighty_4Hz.wav,choir,4,6.64358920000086,0,13,182,76,98,78,3,15,4,5.53229620833333,20.0169035833333,11080.3081983,3,NaN,NaN,NaN
13,5,9,AsyncTheta,79,1071_4Hz.avi,acoustic17_oneeighty_4Hz.wav,acoustic,3,6.18452090000028,0,13,83,190,105,79,4,4,4,5.53229620833333,20.0169035833333,11088.3748769,3,NaN,NaN,NaN
13,6,9,AsyncTheta,76,1293_4Hz.avi,choir23_oneeighty_4Hz.wav,choir,3,4.54411780000009,1,13,78,98,76,182,3,8,4,5.53229620833333,20.0169035833333,11096.2082439,3,NaN,NaN,NaN
13,7,9,AsyncTheta,110,1443_4Hz.avi,orch3_oneeighty_4Hz.wav,orch,3,3.4074443999998,1,13,142,192,110,134,3,10,5,5.53229620833333,20.0169035833333,11103.8416453,3,NaN,NaN,NaN
13,8,9,AsyncTheta,190,1427_4Hz.avi,acoustic46_oneeighty_4Hz.wav,acoustic,2,4.00152739999976,1,13,79,190,83,105,2,13,2,5.53229620833333,20.0169035833333,11109.841627,3,NaN,NaN,NaN
13,9,9,AsyncTheta,103,1084_4Hz.avi,dar20_oneeighty_4Hz.wav,dar,2,3.21516549999978,0,13,82,191,103,122,3,16,1,5.53229620833333,20.0169035833333,11116.0583244,3,NaN,NaN,NaN
13,10,9,AsyncTheta,105,1003_4Hz.avi,acoustic6_oneeighty_4Hz.wav,acoustic,3,2.93853779999881,1,13,83,190,105,79,3,12,4,5.53229620833333,20.0169035833333,11121.1750346,3,NaN,NaN,NaN
13,11,9,AsyncTheta,142,1155_4Hz.avi,orch9_oneeighty_4Hz.wav,orch,2,4.30775859999994,0,13,142,110,134,192,1,11,3,5.53229620833333,20.0169035833333,11125.7916834,3,NaN,NaN,NaN
13,12,9,AsyncTheta,182,1277_4Hz.avi,choir39_oneeighty_4Hz.wav,choir,3,2.48465089999991,0,13,76,78,98,182,4,9,2,5.53229620833333,20.0169035833333,11133.0583508,3,NaN,NaN,NaN
13,13,9,AsyncTheta,122,1289_4Hz.avi,dar3_oneeighty_4Hz.wav,dar,3,5.57666009999957,0,13,82,191,103,122,4,6,2,5.53229620833333,20.0169035833333,11137.6417231,3,NaN,NaN,NaN
13,14,9,AsyncTheta,78,1301_4Hz.avi,choir11_oneeighty_4Hz.wav,choir,4,8.04249390000041,0,13,98,78,182,76,2,1,4,5.53229620833333,20.0169035833333,11146.1417532,3,NaN,NaN,NaN
13,15,9,AsyncTheta,82,1449_4Hz.avi,dar17_oneeighty_4Hz.wav,dar,3,3.67450660000031,1,13,191,122,82,103,3,7,2,5.53229620833333,20.0169035833333,11156.2917858,3,NaN,NaN,NaN
13,16,9,AsyncTheta,83,1139_4Hz.avi,acoustic27_oneeighty_4Hz.wav,acoustic,1,6.01135799999975,0,13,79,190,83,105,3,14,2,5.53229620833333,20.0169035833333,11163.0751758,3,NaN,NaN,NaN
13,1,10,SyncTheta,102,1012_4Hz.avi,orch18_zero_4Hz.wav,orch,1,6.6490920999986,1,13,102,28,74,91,1,10,4,4.75989669166667,20.0169035833333,11340.1924412,3,NaN,NaN,NaN
13,2,10,SyncTheta,91,1340_4Hz.avi,orch46_zero_4Hz.wav,orch,4,6.54145829999834,0,13,102,28,91,74,3,11,3,4.75989669166667,20.0169035833333,11348.3924724,3,NaN,NaN,NaN
13,3,10,SyncTheta,45,1203_4Hz.avi,dar2_zero_4Hz.wav,dar,1,4.16556670000136,1,13,45,80,14,64,1,3,1,4.75989669166667,20.0169035833333,11356.7258288,3,NaN,NaN,NaN
13,4,10,SyncTheta,11,1448_4Hz.avi,choir36_zero_4Hz.wav,choir,1,3.72245710000061,0,13,72,11,69,62,2,9,3,4.75989669166667,20.0169035833333,11362.4758534,3,NaN,NaN,NaN
13,5,10,SyncTheta,4,1167_4Hz.avi,acoustic37_zero_4Hz.wav,acoustic,2,6.25363079999988,0,13,60,58,39,4,4,6,3,4.75989669166667,20.0169035833333,11367.9592331,3,NaN,NaN,NaN
13,6,10,SyncTheta,62,1058_4Hz.avi,choir19_zero_4Hz.wav,choir,2,5.02134750000005,1,13,11,62,72,69,2,2,2,4.75989669166667,20.0169035833333,11377.0259004,3,NaN,NaN,NaN
13,7,10,SyncTheta,28,1148_4Hz.avi,orch19_zero_4Hz.wav,orch,3,3.30430530000012,1,13,74,91,28,102,3,15,1,4.75989669166667,20.0169035833333,11384.3759727,3,NaN,NaN,NaN
13,8,10,SyncTheta,58,1323_4Hz.avi,acoustic29_zero_4Hz.wav,acoustic,1,6.59899749999931,1,13,58,4,39,60,1,8,2,4.75989669166667,20.0169035833333,11389.7259489,3,NaN,NaN,NaN
13,9,10,SyncTheta,14,1416_4Hz.avi,dar1_zero_4Hz.wav,dar,3,4.68490810000003,0,13,14,45,64,80,1,14,2,4.75989669166667,20.0169035833333,11399.0593174,3,NaN,NaN,NaN
13,10,10,SyncTheta,60,1249_4Hz.avi,acoustic20_zero_4Hz.wav,acoustic,1,4.336089299999,0,13,4,60,58,39,2,7,3,4.75989669166667,20.0169035833333,11405.4093374,3,NaN,NaN,NaN
13,11,10,SyncTheta,74,1337_4Hz.avi,orch24_zero_4Hz.wav,orch,1,5.04064699999981,0,13,91,74,28,102,2,16,2,4.75989669166667,20.0169035833333,11411.9760035,3,NaN,NaN,NaN
13,12,10,SyncTheta,72,1097_4Hz.avi,choir29_zero_4Hz.wav,choir,2,3.37766379999994,1,13,62,72,11,69,2,4,4,4.75989669166667,20.0169035833333,11419.0427227,3,NaN,NaN,NaN
13,13,10,SyncTheta,64,1098_4Hz.avi,dar11_zero_4Hz.wav,dar,2,6.69195519999994,0,13,45,14,64,80,3,5,1,4.75989669166667,20.0169035833333,11425.0760481,3,NaN,NaN,NaN
13,14,10,SyncTheta,69,1216_4Hz.avi,choir32_zero_4Hz.wav,choir,4,3.89115419999871,1,13,62,72,11,69,4,1,2,4.75989669166667,20.0169035833333,11433.82608,3,NaN,NaN,NaN
13,15,10,SyncTheta,80,1082_4Hz.avi,dar15_zero_4Hz.wav,dar,3,7.94728469999973,0,13,80,45,64,14,1,12,2,4.75989669166667,20.0169035833333,11440.0261052,3,NaN,NaN,NaN
13,16,10,SyncTheta,39,1061_4Hz.avi,acoustic11_zero_4Hz.wav,acoustic,1,3.82609450000018,0,13,58,39,60,4,2,13,3,4.75989669166667,20.0169035833333,11450.976179,3,NaN,NaN,NaN
13,1,11,NoFlicker,171,1280_half_amp.avi,willow19_half_amp.wav,willow,3,7.11977699999989,0,13,157,171,120,119,2,7,4,4.68579201166667,20.0169035833333,11625.6601398,3,NaN,NaN,NaN
13,2,11,NoFlicker,120,1365_half_amp.avi,willow21_half_amp.wav,willow,1,3.94348750000063,1,13,120,119,171,157,1,8,1,4.68579201166667,20.0169035833333,11635.5268444,3,NaN,NaN,NaN
13,3,11,NoFlicker,155,1042_half_amp.avi,synth10_half_amp.wav,synth,2,4.01118080000015,1,13,184,155,125,127,2,5,4,4.68579201166667,20.0169035833333,11641.7768345,3,NaN,NaN,NaN
13,4,11,NoFlicker,172,1350_half_amp.avi,guitar10_half_amp.wav,guitar,3,5.40364690000024,1,13,146,183,172,115,3,10,2,4.68579201166667,20.0169035833333,11648.2268599,3,NaN,NaN,NaN
13,5,11,NoFlicker,132,1356_half_amp.avi,ep30_half_amp.wav,ep,2,5.48590960000001,0,13,123,180,132,176,3,1,5,4.68579201166667,20.0169035833333,11656.5435939,3,NaN,NaN,NaN
13,6,11,NoFlicker,146,1005_half_amp.avi,guitar14_half_amp.wav,guitar,2,5.97651219999898,1,13,115,146,172,183,2,3,2,4.68579201166667,20.0169035833333,11664.9602823,3,NaN,NaN,NaN
13,7,11,NoFlicker,157,1225_half_amp.avi,willow14_half_amp.wav,willow,3,5.9256037999985,0,13,171,157,119,120,2,9,3,4.68579201166667,20.0169035833333,11672.7603424,3,NaN,NaN,NaN
13,8,11,NoFlicker,123,1067_half_amp.avi,ep37_half_amp.wav,ep,2,4.36229490000005,0,13,176,180,132,123,4,11,4,4.68579201166667,20.0169035833333,11680.6603675,3,NaN,NaN,NaN
13,9,11,NoFlicker,127,1411_half_amp.avi,synth28_half_amp.wav,synth,2,6.5905316999997,1,13,184,127,155,125,2,16,1,4.68579201166667,20.0169035833333,11686.8269994,3,NaN,NaN,NaN
13,10,11,NoFlicker,176,1405_half_amp.avi,ep46_half_amp.wav,ep,3,2.62932449999971,1,13,180,132,176,123,3,6,1,4.68579201166667,20.0169035833333,11695.0104168,3,NaN,NaN,NaN
13,11,11,NoFlicker,119,1189_half_amp.avi,willow11_half_amp.wav,willow,2,4.90638420000141,0,13,120,157,171,119,4,13,2,4.68579201166667,20.0169035833333,11700.1937439,3,NaN,NaN,NaN
13,12,11,NoFlicker,115,1370_half_amp.avi,guitar9_half_amp.wav,guitar,2,2.85649059999923,1,13,172,115,146,183,2,4,1,4.68579201166667,20.0169035833333,11708.0604385,3,NaN,NaN,NaN
13,13,11,NoFlicker,184,1052_half_amp.avi,synth40_half_amp.wav,synth,3,2.80782020000152,1,13,127,125,184,155,3,12,2,4.68579201166667,20.0169035833333,11712.8604666,3,NaN,NaN,NaN
13,14,11,NoFlicker,183,1374_half_amp.avi,guitar16_half_amp.wav,guitar,3,4.80645320000076,1,13,172,146,183,115,3,2,1,4.68579201166667,20.0169035833333,11717.4771117,3,NaN,NaN,NaN
13,15,11,NoFlicker,125,1050_half_amp.avi,synth36_half_amp.wav,synth,2,4.2627936000008,1,13,127,125,155,184,2,15,1,4.68579201166667,20.0169035833333,11724.7104977,3,NaN,NaN,NaN
13,16,11,NoFlicker,180,1006_half_amp.avi,ep4_half_amp.wav,ep,2,4.89451160000135,0,13,123,132,176,180,4,14,1,4.68579201166667,20.0169035833333,11731.1938817,3,NaN,NaN,NaN
13,1,12,SyncDelta,75,1040_1.7Hz.avi,willow17_zero_1.7Hz.wav,willow,1,7.21142839999993,0,13,37,75,48,32,2,1,2,4.64568425166667,20.0169035833333,11893.827747,3,NaN,NaN,NaN
13,2,12,SyncDelta,37,1237_1.7Hz.avi,willow15_zero_1.7Hz.wav,willow,4,6.45352209999874,0,13,37,32,75,48,1,5,4,4.64568425166667,20.0169035833333,11904.244479,3,NaN,NaN,NaN
13,3,12,SyncDelta,51,1331_1.7Hz.avi,synth47_zero_1.7Hz.wav,synth,1,6.53483469999992,0,13,61,89,51,54,3,7,2,4.64568425166667,20.0169035833333,11913.2945393,3,NaN,NaN,NaN
13,4,12,SyncDelta,77,1008_1.7Hz.avi,guitar42_zero_1.7Hz.wav,guitar,4,4.05906880000111,0,13,59,77,53,46,2,15,4,4.64568425166667,20.0169035833333,11922.8778582,3,NaN,NaN,NaN
13,5,12,SyncDelta,25,1094_1.7Hz.avi,ep15_zero_1.7Hz.wav,ep,1,5.07162890000109,0,13,87,25,41,26,2,3,4,4.64568425166667,20.0169035833333,11929.5112388,3,NaN,NaN,NaN
13,6,12,SyncDelta,59,1346_1.7Hz.avi,guitar33_zero_1.7Hz.wav,guitar,2,5.26427169999988,0,13,77,53,46,59,4,4,1,4.64568425166667,20.0169035833333,11937.5946303,3,NaN,NaN,NaN
13,7,12,SyncDelta,32,1360_1.7Hz.avi,willow10_zero_1.7Hz.wav,willow,4,5.34064209999997,0,13,75,37,32,48,3,6,1,4.64568425166667,20.0169035833333,11946.0446559,3,NaN,NaN,NaN
13,8,12,SyncDelta,26,1190_1.7Hz.avi,ep7_zero_1.7Hz.wav,ep,2,4.30657229999997,0,13,87,41,25,26,4,9,2,4.64568425166667,20.0169035833333,11954.4613406,3,NaN,NaN,NaN
13,9,12,SyncDelta,89,1393_1.7Hz.avi,synth41_zero_1.7Hz.wav,synth,2,3.29957410000134,0,13,89,61,54,51,1,13,1,4.64568425166667,20.0169035833333,11961.727995,3,NaN,NaN,NaN
13,10,12,SyncDelta,41,1132_1.7Hz.avi,ep10_zero_1.7Hz.wav,ep,2,6.27842400000009,0,13,26,87,25,41,4,8,2,4.64568425166667,20.0169035833333,11966.5113427,3,NaN,NaN,NaN
13,11,12,SyncDelta,48,1021_1.7Hz.avi,willow12_zero_1.7Hz.wav,willow,3,2.5712470999988,0,13,48,75,37,32,1,10,4,4.64568425166667,20.0169035833333,11974.7280401,3,NaN,NaN,NaN
13,12,12,SyncDelta,53,1197_1.7Hz.avi,guitar46_zero_1.7Hz.wav,guitar,4,4.74130950000108,1,13,77,46,59,53,4,14,2,4.64568425166667,20.0169035833333,11980.8614227,3,NaN,NaN,NaN
13,13,12,SyncDelta,61,1207_1.7Hz.avi,synth46_zero_1.7Hz.wav,synth,3,5.60916820000057,0,13,61,51,54,89,1,11,1,4.64568425166667,20.0169035833333,11986.9780854,3,NaN,NaN,NaN
13,14,12,SyncDelta,46,1210_1.7Hz.avi,guitar48_zero_1.7Hz.wav,guitar,4,3.04759769999873,1,13,53,59,77,46,4,2,2,4.64568425166667,20.0169035833333,11994.31147,3,NaN,NaN,NaN
13,15,12,SyncDelta,54,1181_1.7Hz.avi,synth12_zero_1.7Hz.wav,synth,1,4.52185839999947,0,13,89,54,51,61,2,12,2,4.64568425166667,20.0169035833333,11999.6948594,3,NaN,NaN,NaN
13,16,12,SyncDelta,87,1142_1.7Hz.avi,ep3_zero_1.7Hz.wav,ep,4,7.56902059999993,0,13,41,87,25,26,2,16,2,4.64568425166667,20.0169035833333,12007.411525,3,NaN,NaN,NaN
