ParticipantID,TrialNumber,BlockNumber,Condition,ClipID,VideoFile,SoundFile,SoundCategory,Response,RT,Accuracy,ConditionID,Frame1,Frame2,Frame3,Frame4,CorrectKey,EncodingPosition,Rating,BlockDuration,ExperimentDuration,MemoryTestOnset,RunNumber,Age,Handedness,Sex
19,1,1,SyncTheta,67,1310_4Hz.avi,guitar21_zero_4Hz.wav,guitar,1,5.11924909999971,1,19,67,77,46,90,1,13,5,6.09748149833333,NaN,2167.5900332,1,NaN,NaN,NaN
19,2,1,SyncTheta,65,1013_4Hz.avi,ep22_zero_4Hz.wav,ep,1,4.43174880000015,1,19,65,101,87,25,1,8,5,6.09748149833333,NaN,2174.1733457,1,NaN,NaN,NaN
19,3,1,SyncTheta,51,1331_4Hz.avi,synth47_zero_4Hz.wav,synth,2,11.0655920000004,0,19,100,70,51,89,3,6,5,6.09748149833333,NaN,2181.9400438,1,NaN,NaN,NaN
19,4,1,SyncTheta,100,1107_4Hz.avi,synth23_zero_4Hz.wav,synth,2,6.98350610000034,0,19,70,89,51,100,4,3,5,6.09748149833333,NaN,2195.9901167,1,NaN,NaN,NaN
19,5,1,SyncTheta,89,1393_4Hz.avi,synth41_zero_4Hz.wav,synth,3,6.84661370000003,1,19,51,100,89,70,3,7,2,6.09748149833333,NaN,2205.4901473,1,NaN,NaN,NaN
19,6,1,SyncTheta,46,1210_4Hz.avi,guitar48_zero_4Hz.wav,guitar,2,6.5729438000003,0,19,67,77,46,90,3,15,4,6.09748149833333,NaN,2215.3067797,1,NaN,NaN,NaN
19,7,1,SyncTheta,77,1008_4Hz.avi,guitar42_zero_4Hz.wav,guitar,4,5.75008759999992,1,19,90,46,67,77,4,16,1,6.09748149833333,NaN,2225.0568039,1,NaN,NaN,NaN
19,8,1,SyncTheta,94,1109_4Hz.avi,willow6_zero_4Hz.wav,willow,4,5.73418029999993,0,19,94,32,55,75,1,2,4,6.09748149833333,NaN,2233.8735206,1,NaN,NaN,NaN
19,9,1,SyncTheta,55,1044_4Hz.avi,willow4_zero_4Hz.wav,willow,3,6.51933820000022,1,19,94,75,55,32,3,4,4,6.09748149833333,NaN,2241.3235467,1,NaN,NaN,NaN
19,10,1,SyncTheta,32,1360_4Hz.avi,willow10_zero_4Hz.wav,willow,1,7.34344150000015,1,19,32,55,75,94,1,10,1,6.09748149833333,NaN,2249.5568958,1,NaN,NaN,NaN
19,11,1,SyncTheta,90,1273_4Hz.avi,guitar23_zero_4Hz.wav,guitar,1,14.7152771000001,1,19,90,67,46,77,1,11,1,6.09748149833333,NaN,2259.0735857,1,NaN,NaN,NaN
19,12,1,SyncTheta,75,1040_4Hz.avi,willow17_zero_4Hz.wav,willow,3,4.22410229999969,1,19,32,94,75,55,3,1,3,6.09748149833333,NaN,2275.9236264,1,NaN,NaN,NaN
19,13,1,SyncTheta,70,1093_4Hz.avi,synth6_zero_4Hz.wav,synth,1,6.25102960000004,0,19,100,70,89,51,2,14,1,6.09748149833333,NaN,2281.6736451,1,NaN,NaN,NaN
19,14,1,SyncTheta,25,1094_4Hz.avi,ep15_zero_4Hz.wav,ep,3,3.30561140000009,1,19,101,65,25,87,3,12,5,6.09748149833333,NaN,2289.7736666,1,NaN,NaN,NaN
19,15,1,SyncTheta,87,1142_4Hz.avi,ep3_zero_4Hz.wav,ep,1,2.62606099999994,0,19,65,25,101,87,4,9,3,6.09748149833333,NaN,2294.8403503,1,NaN,NaN,NaN
19,16,1,SyncTheta,101,1295_4Hz.avi,ep40_zero_4Hz.wav,ep,2,4.08260610000025,1,19,87,101,25,65,2,5,4,6.09748149833333,NaN,2300.440327,1,NaN,NaN,NaN
19,1,2,NoFlicker,98,1014_half_amp.avi,choir41_half_amp.wav,choir,4,6.95487869999988,1,19,88,121,159,98,4,5,4,5.06587199,NaN,2476.0408206,1,NaN,NaN,NaN
19,2,2,NoFlicker,148,1121_half_amp.avi,acoustic26_half_amp.wav,acoustic,1,9.96891979999964,1,19,148,107,96,105,1,6,5,5.06587199,NaN,2484.7741795,1,NaN,NaN,NaN
19,3,2,NoFlicker,126,1298_half_amp.avi,dar9_half_amp.wav,dar,2,8.39682169999969,1,19,122,126,154,114,2,2,5,5.06587199,NaN,2496.3575731,1,NaN,NaN,NaN
19,4,2,NoFlicker,154,1074_half_amp.avi,dar5_half_amp.wav,dar,1,5.88057809999964,1,19,154,114,126,122,1,1,1,5.06587199,NaN,2506.8575555,1,NaN,NaN,NaN
19,5,2,NoFlicker,122,1289_half_amp.avi,dar3_half_amp.wav,dar,3,5.25055489999977,0,19,154,126,114,122,4,12,5,5.06587199,NaN,2515.5908798,1,NaN,NaN,NaN
19,6,2,NoFlicker,88,1191_half_amp.avi,choir20_half_amp.wav,choir,1,7.17314179999994,0,19,159,98,121,88,4,7,4,5.06587199,NaN,2523.5742637,1,NaN,NaN,NaN
19,7,2,NoFlicker,159,1091_half_amp.avi,choir8_half_amp.wav,choir,2,2.34659049999982,1,19,88,159,98,121,2,13,1,5.06587199,NaN,2532.4742998,1,NaN,NaN,NaN
19,8,2,NoFlicker,143,1127_half_amp.avi,orch11_half_amp.wav,orch,3,7.97495859999981,1,19,142,165,143,137,3,10,4,5.06587199,NaN,2537.1743003,1,NaN,NaN,NaN
19,9,2,NoFlicker,137,1303_half_amp.avi,orch10_half_amp.wav,orch,3,7.26772470000014,0,19,137,143,142,165,1,11,2,5.06587199,NaN,2548.3909639,1,NaN,NaN,NaN
19,10,2,NoFlicker,142,1155_half_amp.avi,orch9_half_amp.wav,orch,3,1.89208319999989,1,19,137,143,142,165,3,15,5,5.06587199,NaN,2557.9409921,1,NaN,NaN,NaN
19,11,2,NoFlicker,121,1354_half_amp.avi,choir22_half_amp.wav,choir,2,5.53501989999995,1,19,88,121,98,159,2,4,2,5.06587199,NaN,2563.0410456,1,NaN,NaN,NaN
19,12,2,NoFlicker,165,1410_half_amp.avi,orch43_half_amp.wav,orch,2,5.4124667000001,1,19,137,165,143,142,2,9,5,5.06587199,NaN,2571.3076891,1,NaN,NaN,NaN
19,13,2,NoFlicker,114,1322_half_amp.avi,dar14_half_amp.wav,dar,1,3.72473979999995,1,19,114,126,122,154,1,16,5,5.06587199,NaN,2578.5577095,1,NaN,NaN,NaN
19,14,2,NoFlicker,105,1003_half_amp.avi,acoustic6_half_amp.wav,acoustic,1,5.92053450000003,0,19,107,96,148,105,4,14,4,5.06587199,NaN,2585.5244528,1,NaN,NaN,NaN
19,15,2,NoFlicker,96,1027_half_amp.avi,acoustic40_half_amp.wav,acoustic,4,6.12772070000028,0,19,96,105,148,107,1,8,2,5.06587199,NaN,2594.2410861,1,NaN,NaN,NaN
19,16,2,NoFlicker,107,1265_half_amp.avi,acoustic16_half_amp.wav,acoustic,4,5.80475010000009,1,19,105,148,96,107,4,3,1,5.06587199,NaN,2602.8244419,1,NaN,NaN,NaN
19,1,3,AsyncTheta,161,1433_4Hz.avi,guitar2_oneeighty_4Hz.wav,guitar,4,10.1079291999999,0,19,161,183,179,170,1,3,1,6.05876080333333,NaN,2815.4083371,1,NaN,NaN,NaN
19,2,3,AsyncTheta,173,1348_4Hz.avi,ep31_oneeighty_4Hz.wav,ep,2,7.60927360000005,0,19,180,144,177,173,4,7,1,6.05876080333333,NaN,2828.3083738,1,NaN,NaN,NaN
19,3,3,AsyncTheta,129,1286_4Hz.avi,synth30_oneeighty_4Hz.wav,synth,1,6.3945291,1,19,129,184,163,140,1,10,1,6.05876080333333,NaN,2838.7750906,1,NaN,NaN,NaN
19,4,3,AsyncTheta,140,1270_4Hz.avi,synth17_oneeighty_4Hz.wav,synth,3,7.31982729999982,1,19,129,184,140,163,3,5,2,6.05876080333333,NaN,2848.4417542,1,NaN,NaN,NaN
19,5,3,AsyncTheta,184,1052_4Hz.avi,synth40_oneeighty_4Hz.wav,synth,2,9.69235040000012,0,19,184,163,129,140,1,12,1,6.05876080333333,NaN,2858.4417768,1,NaN,NaN,NaN
19,6,3,AsyncTheta,179,1186_4Hz.avi,guitar30_oneeighty_4Hz.wav,guitar,2,9.44458480000003,1,19,161,179,170,183,2,6,4,6.05876080333333,NaN,2870.2418167,1,NaN,NaN,NaN
19,7,3,AsyncTheta,183,1374_4Hz.avi,guitar16_oneeighty_4Hz.wav,guitar,1,7.46032779999996,0,19,179,170,183,161,3,16,2,6.05876080333333,NaN,2882.6918075,1,NaN,NaN,NaN
19,8,3,AsyncTheta,156,1060_4Hz.avi,willow7_oneeighty_4Hz.wav,willow,3,11.8849509000001,1,19,149,167,156,171,3,8,4,6.05876080333333,NaN,2892.5252017,1,NaN,NaN,NaN
19,9,3,AsyncTheta,149,1200_4Hz.avi,willow8_oneeighty_4Hz.wav,willow,1,5.83229149999988,0,19,156,149,171,167,2,13,1,6.05876080333333,NaN,2907.6585444,1,NaN,NaN,NaN
19,10,3,AsyncTheta,167,1177_4Hz.avi,willow24_oneeighty_4Hz.wav,willow,4,11.4665074999998,1,19,149,171,156,167,4,14,1,6.05876080333333,NaN,2916.0085646,1,NaN,NaN,NaN
19,11,3,AsyncTheta,170,1062_4Hz.avi,guitar3_oneeighty_4Hz.wav,guitar,4,5.10162630000013,0,19,183,170,161,179,2,1,5,6.05876080333333,NaN,2929.3252715,1,NaN,NaN,NaN
19,12,3,AsyncTheta,171,1280_4Hz.avi,willow19_oneeighty_4Hz.wav,willow,3,6.03979020000043,1,19,167,156,171,149,3,4,4,6.05876080333333,NaN,2936.9586434,1,NaN,NaN,NaN
19,13,3,AsyncTheta,163,1441_4Hz.avi,synth27_oneeighty_4Hz.wav,synth,1,5.71107770000026,0,19,129,184,140,163,4,15,1,6.05876080333333,NaN,2944.5586369,1,NaN,NaN,NaN
19,14,3,AsyncTheta,177,1283_4Hz.avi,ep38_oneeighty_4Hz.wav,ep,3,6.19896819999985,1,19,144,180,177,173,3,11,2,6.05876080333333,NaN,2952.891986,1,NaN,NaN,NaN
19,15,3,AsyncTheta,180,1006_4Hz.avi,ep4_oneeighty_4Hz.wav,ep,4,4.58542030000035,0,19,173,180,177,144,2,9,2,6.05876080333333,NaN,2960.5420105,1,NaN,NaN,NaN
19,16,3,AsyncTheta,144,1255_4Hz.avi,ep28_oneeighty_4Hz.wav,ep,2,5.51378749999958,0,19,177,180,144,173,3,2,1,6.05876080333333,NaN,2966.7587185,1,NaN,NaN,NaN
19,1,4,SyncDelta,52,1387_1.7Hz.avi,choir2_zero_1.7Hz.wav,choir,1,5.59576150000021,0,19,12,19,52,38,3,6,2,5.56308863166667,NaN,3143.8424796,1,NaN,NaN,NaN
19,2,4,SyncDelta,21,1112_1.7Hz.avi,acoustic32_zero_1.7Hz.wav,acoustic,1,12.9767596000002,0,19,20,21,5,23,2,8,2,5.56308863166667,NaN,3150.9091679,1,NaN,NaN,NaN
19,3,4,SyncDelta,40,1239_1.7Hz.avi,dar6_zero_1.7Hz.wav,dar,3,6.27301440000019,0,19,43,34,29,40,4,4,5,5.56308863166667,NaN,3165.8758976,1,NaN,NaN,NaN
19,4,4,SyncDelta,34,1319_1.7Hz.avi,dar22_zero_1.7Hz.wav,dar,1,8.83837200000016,1,19,34,29,43,40,1,1,5,5.56308863166667,NaN,3174.9092249,1,NaN,NaN,NaN
19,5,4,SyncDelta,43,1141_1.7Hz.avi,dar13_zero_1.7Hz.wav,dar,3,4.81548860000021,0,19,40,43,29,34,2,15,3,5.56308863166667,NaN,3186.3425878,1,NaN,NaN,NaN
19,6,4,SyncDelta,38,1184_1.7Hz.avi,choir33_zero_1.7Hz.wav,choir,1,8.3545452999997,1,19,38,52,12,19,1,7,1,5.56308863166667,NaN,3193.9592692,1,NaN,NaN,NaN
19,7,4,SyncDelta,19,1247_1.7Hz.avi,choir38_zero_1.7Hz.wav,choir,4,7.48933120000038,0,19,52,12,19,38,3,13,2,5.56308863166667,NaN,3205.6593012,1,NaN,NaN,NaN
19,8,4,SyncDelta,42,1339_1.7Hz.avi,orch31_zero_1.7Hz.wav,orch,2,5.58247889999984,1,19,57,42,36,30,2,11,1,5.56308863166667,NaN,3214.5760214,1,NaN,NaN,NaN
19,9,4,SyncDelta,30,1016_1.7Hz.avi,orch14_zero_1.7Hz.wav,orch,2,8.07724989999997,1,19,42,30,57,36,2,12,1,5.56308863166667,NaN,3223.3426841,1,NaN,NaN,NaN
19,10,4,SyncDelta,57,1309_1.7Hz.avi,orch7_zero_1.7Hz.wav,orch,3,5.21170359999996,1,19,30,36,57,42,3,14,2,5.56308863166667,NaN,3233.0427092,1,NaN,NaN,NaN
19,11,4,SyncDelta,12,1077_1.7Hz.avi,choir18_zero_1.7Hz.wav,choir,2,8.82596429999967,1,19,52,12,38,19,2,5,5,5.56308863166667,NaN,3241.1760957,1,NaN,NaN,NaN
19,12,4,SyncDelta,36,1284_1.7Hz.avi,orch29_zero_1.7Hz.wav,orch,2,13.2652155999999,1,19,57,36,42,30,2,2,1,5.56308863166667,NaN,3251.7761184,1,NaN,NaN,NaN
19,13,4,SyncDelta,29,1158_1.7Hz.avi,dar23_zero_1.7Hz.wav,dar,1,6.87754010000026,1,19,29,43,34,40,1,16,3,5.56308863166667,NaN,3267.5927929,1,NaN,NaN,NaN
19,14,4,SyncDelta,23,1330_1.7Hz.avi,acoustic47_zero_1.7Hz.wav,acoustic,2,6.01756569999998,0,19,23,20,5,21,1,10,4,5.56308863166667,NaN,3276.6761568,1,NaN,NaN,NaN
19,15,4,SyncDelta,5,1381_1.7Hz.avi,acoustic1_zero_1.7Hz.wav,acoustic,4,9.00187940000023,0,19,23,5,21,20,2,9,1,5.56308863166667,NaN,3285.1095167,1,NaN,NaN,NaN
19,16,4,SyncDelta,20,1236_1.7Hz.avi,acoustic25_zero_1.7Hz.wav,acoustic,1,9.24543709999989,0,19,23,20,21,5,2,3,5,5.56308863166667,NaN,3296.8928669,1,NaN,NaN,NaN
19,1,5,AsyncTheta,172,1350_4Hz.avi,guitar10_oneeighty_4Hz.wav,guitar,4,6.00586359999988,1,19,151,164,168,172,4,6,2,5.67491800666667,NaN,3573.7102066,2,NaN,NaN,NaN
19,2,5,AsyncTheta,150,1394_4Hz.avi,ep11_oneeighty_4Hz.wav,ep,2,7.04177530000015,0,19,150,176,166,138,1,5,1,5.67491800666667,NaN,3581.7768597,2,NaN,NaN,NaN
19,3,5,AsyncTheta,135,1154_4Hz.avi,synth38_oneeighty_4Hz.wav,synth,3,5.4333959999999,1,19,128,131,135,155,3,8,3,5.67491800666667,NaN,3590.5769077,2,NaN,NaN,NaN
19,4,5,AsyncTheta,131,1366_4Hz.avi,synth34_oneeighty_4Hz.wav,synth,2,7.25803550000001,1,19,128,131,155,135,2,7,1,5.67491800666667,NaN,3598.0602363,2,NaN,NaN,NaN
19,5,5,AsyncTheta,128,1269_4Hz.avi,synth14_oneeighty_4Hz.wav,synth,1,6.49292530000002,1,19,128,131,135,155,1,10,1,5.67491800666667,NaN,3607.2269283,2,NaN,NaN,NaN
19,6,5,AsyncTheta,151,1259_4Hz.avi,guitar43_oneeighty_4Hz.wav,guitar,3,7.1911411000001,0,19,151,168,164,172,1,9,1,5.67491800666667,NaN,3617.0269779,2,NaN,NaN,NaN
19,7,5,AsyncTheta,164,1087_4Hz.avi,guitar17_oneeighty_4Hz.wav,guitar,2,6.54549470000029,1,19,168,164,172,151,2,13,4,5.67491800666667,NaN,3626.1270022,2,NaN,NaN,NaN
19,8,5,AsyncTheta,130,1081_4Hz.avi,willow5_oneeighty_4Hz.wav,willow,4,4.55755350000027,1,19,152,157,153,130,4,4,2,5.67491800666667,NaN,3635.243681,2,NaN,NaN,NaN
19,9,5,AsyncTheta,157,1225_4Hz.avi,willow14_oneeighty_4Hz.wav,willow,4,7.83618019999994,1,19,130,153,152,157,4,14,1,5.67491800666667,NaN,3642.3104364,2,NaN,NaN,NaN
19,10,5,AsyncTheta,153,1157_4Hz.avi,willow1_oneeighty_4Hz.wav,willow,3,4.7661278999999,1,19,157,152,153,130,3,15,5,5.67491800666667,NaN,3653.427079,2,NaN,NaN,NaN
19,11,5,AsyncTheta,168,1204_4Hz.avi,guitar36_oneeighty_4Hz.wav,guitar,1,3.83375859999978,1,19,168,172,151,164,1,2,4,5.67491800666667,NaN,3660.8770611,2,NaN,NaN,NaN
19,12,5,AsyncTheta,152,1445_4Hz.avi,willow2_oneeighty_4Hz.wav,willow,1,5.93269640000017,1,19,152,157,130,153,1,1,1,5.67491800666667,NaN,3667.2104076,2,NaN,NaN,NaN
19,13,5,AsyncTheta,155,1042_4Hz.avi,synth10_oneeighty_4Hz.wav,synth,4,3.38553839999986,1,19,128,135,131,155,4,12,2,5.67491800666667,NaN,3674.7437657,2,NaN,NaN,NaN
19,14,5,AsyncTheta,166,1227_4Hz.avi,ep5_oneeighty_4Hz.wav,ep,2,5.76509519999991,1,19,138,166,150,176,2,16,4,5.67491800666667,NaN,3680.4271371,2,NaN,NaN,NaN
19,15,5,AsyncTheta,138,1149_4Hz.avi,ep2_oneeighty_4Hz.wav,ep,3,4.67448890000014,0,19,166,150,176,138,4,11,1,5.67491800666667,NaN,3688.1604904,2,NaN,NaN,NaN
19,16,5,AsyncTheta,176,1405_4Hz.avi,ep46_oneeighty_4Hz.wav,ep,2,6.8613720000003,0,19,166,138,150,176,4,3,1,5.67491800666667,NaN,3694.2604754,2,NaN,NaN,NaN
19,1,6,SyncTheta,93,1046_4Hz.avi,guitar18_zero_4Hz.wav,guitar,2,5.21453080000038,1,19,73,93,15,7,2,8,4,5.73666597666667,NaN,3884.1776284,2,NaN,NaN,NaN
19,2,6,SyncTheta,86,1278_4Hz.avi,ep35_zero_4Hz.wav,ep,3,14.4253760000001,0,19,16,106,24,86,4,7,4,5.73666597666667,NaN,3891.5610047,2,NaN,NaN,NaN
19,3,6,SyncTheta,71,1076_4Hz.avi,synth21_zero_4Hz.wav,synth,2,8.11963939999987,0,19,35,50,109,71,4,4,1,5.73666597666667,NaN,3908.3276927,2,NaN,NaN,NaN
19,4,6,SyncTheta,50,1049_4Hz.avi,synth43_zero_4Hz.wav,synth,2,7.99374429999989,1,19,71,50,35,109,2,3,1,5.73666597666667,NaN,3919.1777475,2,NaN,NaN,NaN
19,5,6,SyncTheta,109,1299_4Hz.avi,synth18_zero_4Hz.wav,synth,1,8.13791810000021,0,19,71,50,109,35,3,12,1,5.73666597666667,NaN,3929.7777437,2,NaN,NaN,NaN
19,6,6,SyncTheta,15,1422_4Hz.avi,guitar37_zero_4Hz.wav,guitar,3,7.52767390000008,1,19,93,7,15,73,3,9,2,5.73666597666667,NaN,3940.7111059,2,NaN,NaN,NaN
19,7,6,SyncTheta,73,1369_4Hz.avi,guitar19_zero_4Hz.wav,guitar,1,10.549567,0,19,93,15,7,73,4,14,2,5.73666597666667,NaN,3950.6944953,2,NaN,NaN,NaN
19,8,6,SyncTheta,66,1215_4Hz.avi,willow18_zero_4Hz.wav,willow,2,4.30272169999989,1,19,108,66,22,27,2,5,3,5.73666597666667,NaN,3962.9778631,2,NaN,NaN,NaN
19,9,6,SyncTheta,22,1212_4Hz.avi,willow20_zero_4Hz.wav,willow,4,4.65388930000017,0,19,108,27,22,66,3,11,1,5.73666597666667,NaN,3969.3778623,2,NaN,NaN,NaN
19,10,6,SyncTheta,27,1202_4Hz.avi,willow16_zero_4Hz.wav,willow,2,8.44922450000013,1,19,66,27,22,108,2,16,4,5.73666597666667,NaN,3976.2945611,2,NaN,NaN,NaN
19,11,6,SyncTheta,7,1017_4Hz.avi,guitar47_zero_4Hz.wav,guitar,2,10.9954051,0,19,73,93,15,7,4,6,4,5.73666597666667,NaN,3986.3612607,2,NaN,NaN,NaN
19,12,6,SyncTheta,108,1415_4Hz.avi,willow3_zero_4Hz.wav,willow,2,11.5356627000001,0,19,27,22,108,66,3,2,1,5.73666597666667,NaN,3999.3446202,2,NaN,NaN,NaN
19,13,6,SyncTheta,35,1039_4Hz.avi,synth5_zero_4Hz.wav,synth,1,6.66669569999976,1,19,35,50,109,71,1,13,3,5.73666597666667,NaN,4013.5946545,2,NaN,NaN,NaN
19,14,6,SyncTheta,24,1217_4Hz.avi,ep44_zero_4Hz.wav,ep,4,3.78835389999995,1,19,16,106,86,24,4,15,3,5.73666597666667,NaN,4022.994689,2,NaN,NaN,NaN
19,15,6,SyncTheta,106,1113_4Hz.avi,ep29_zero_4Hz.wav,ep,3,4.63367280000011,1,19,86,24,106,16,3,10,1,5.73666597666667,NaN,4028.6113341,2,NaN,NaN,NaN
19,16,6,SyncTheta,16,1442_4Hz.avi,ep34_zero_4Hz.wav,ep,2,9.55374290000009,0,19,16,86,24,106,1,1,4,5.73666597666667,NaN,4035.8447201,2,NaN,NaN,NaN
19,1,7,NoFlicker,76,1293_half_amp.avi,choir23_half_amp.wav,choir,1,5.10882390000006,1,19,76,124,78,160,1,10,3,6.03032477166667,NaN,4243.3118836,2,NaN,NaN,NaN
19,2,7,NoFlicker,113,1037_half_amp.avi,acoustic23_half_amp.wav,acoustic,4,12.6249453,1,19,79,169,83,113,4,6,5,6.03032477166667,NaN,4251.4618988,2,NaN,NaN,NaN
19,3,7,NoFlicker,103,1084_half_amp.avi,dar20_half_amp.wav,dar,3,6.37333699999999,1,19,82,136,103,162,3,12,4,6.03032477166667,NaN,4267.2952779,2,NaN,NaN,NaN
19,4,7,NoFlicker,162,1358_half_amp.avi,dar7_half_amp.wav,dar,1,14.1437446,0,19,82,136,103,162,4,3,5,6.03032477166667,NaN,4276.3786233,2,NaN,NaN,NaN
19,5,7,NoFlicker,136,1175_half_amp.avi,dar4_half_amp.wav,dar,2,6.14414059999945,1,19,103,136,82,162,2,14,4,6.03032477166667,NaN,4292.1953621,2,NaN,NaN,NaN
19,6,7,NoFlicker,160,1421_half_amp.avi,choir13_half_amp.wav,choir,1,10.7544769999995,0,19,124,160,78,76,2,11,1,6.03032477166667,NaN,4300.8286863,2,NaN,NaN,NaN
19,7,7,NoFlicker,124,1183_half_amp.avi,choir24_half_amp.wav,choir,3,4.7984378000001,1,19,160,78,124,76,3,16,1,6.03032477166667,NaN,4314.228783,2,NaN,NaN,NaN
19,8,7,NoFlicker,145,1352_half_amp.avi,orch39_half_amp.wav,orch,2,9.82694189999984,1,19,134,145,174,110,2,4,4,6.03032477166667,NaN,4320.7620784,2,NaN,NaN,NaN
19,9,7,NoFlicker,110,1443_half_amp.avi,orch3_half_amp.wav,orch,2,4.9995571999998,1,19,134,110,174,145,2,5,5,6.03032477166667,NaN,4333.5787779,2,NaN,NaN,NaN
19,10,7,NoFlicker,174,1119_half_amp.avi,orch45_half_amp.wav,orch,2,12.1246699000003,1,19,145,174,110,134,2,13,1,6.03032477166667,NaN,4339.9955124,2,NaN,NaN,NaN
19,11,7,NoFlicker,78,1301_half_amp.avi,choir11_half_amp.wav,choir,1,7.9301643000008,0,19,160,78,76,124,2,7,1,6.03032477166667,NaN,4354.4788235,2,NaN,NaN,NaN
19,12,7,NoFlicker,134,1026_half_amp.avi,orch16_half_amp.wav,orch,3,3.52591070000017,1,19,145,110,134,174,3,2,5,6.03032477166667,NaN,4363.9955504,2,NaN,NaN,NaN
19,13,7,NoFlicker,82,1449_half_amp.avi,dar17_half_amp.wav,dar,1,4.39818869999999,1,19,82,162,103,136,1,15,4,6.03032477166667,NaN,4369.895588,2,NaN,NaN,NaN
19,14,7,NoFlicker,83,1139_half_amp.avi,acoustic27_half_amp.wav,acoustic,2,6.78144110000085,1,19,79,83,169,113,2,9,3,6.03032477166667,NaN,4376.845546,2,NaN,NaN,NaN
19,15,7,NoFlicker,79,1071_half_amp.avi,acoustic17_half_amp.wav,acoustic,1,12.9467243999998,0,19,113,79,83,169,2,8,4,6.03032477166667,NaN,4385.5956015,2,NaN,NaN,NaN
19,16,7,NoFlicker,169,1083_half_amp.avi,acoustic43_half_amp.wav,acoustic,2,7.40902079999978,0,19,83,113,169,79,3,1,5,6.03032477166667,NaN,4399.9456379,2,NaN,NaN,NaN
19,1,8,SyncDelta,72,1097_1.7Hz.avi,choir29_zero_1.7Hz.wav,choir,2,9.64986219999992,1,19,63,72,69,11,2,14,4,6.39069162833333,NaN,4606.5294658,2,NaN,NaN,NaN
19,2,8,SyncDelta,44,1254_1.7Hz.avi,acoustic48_zero_1.7Hz.wav,acoustic,1,11.6259009999994,0,19,60,4,44,58,3,8,4,6.39069162833333,NaN,4618.6128268,2,NaN,NaN,NaN
19,3,8,SyncDelta,49,1221_1.7Hz.avi,dar21_zero_1.7Hz.wav,dar,2,7.36130749999938,1,19,80,49,64,14,2,6,2,6.39069162833333,NaN,4631.8462261,2,NaN,NaN,NaN
19,4,8,SyncDelta,64,1098_1.7Hz.avi,dar11_zero_1.7Hz.wav,dar,1,7.12800849999985,1,19,64,80,14,49,1,1,4,6.39069162833333,NaN,4640.5628857,2,NaN,NaN,NaN
19,5,8,SyncDelta,14,1416_1.7Hz.avi,dar1_zero_1.7Hz.wav,dar,1,10.8801683000002,1,19,14,80,49,64,1,11,4,6.39069162833333,NaN,4649.6462709,2,NaN,NaN,NaN
19,6,8,SyncDelta,69,1216_1.7Hz.avi,choir32_zero_1.7Hz.wav,choir,3,10.4792299999999,0,19,72,69,63,11,2,15,2,6.39069162833333,NaN,4662.7462718,2,NaN,NaN,NaN
19,7,8,SyncDelta,63,1128_1.7Hz.avi,choir26_zero_1.7Hz.wav,choir,2,9.0498035999999,0,19,11,72,63,69,3,16,2,6.39069162833333,NaN,4676.2296397,2,NaN,NaN,NaN
19,8,8,SyncDelta,91,1340_1.7Hz.avi,orch46_zero_1.7Hz.wav,orch,2,10.8600624999999,0,19,81,102,91,28,3,3,2,6.39069162833333,NaN,4686.7796717,2,NaN,NaN,NaN
19,9,8,SyncDelta,81,1444_1.7Hz.avi,orch4_zero_1.7Hz.wav,orch,1,10.1567254000001,1,19,81,91,102,28,1,4,1,6.39069162833333,NaN,4700.1963989,2,NaN,NaN,NaN
19,10,8,SyncDelta,102,1012_1.7Hz.avi,orch18_zero_1.7Hz.wav,orch,4,6.91428499999984,0,19,81,28,102,91,3,7,2,6.39069162833333,NaN,4713.1630673,2,NaN,NaN,NaN
19,11,8,SyncDelta,11,1448_1.7Hz.avi,choir36_zero_1.7Hz.wav,choir,1,11.2712924999996,0,19,63,11,69,72,2,12,4,6.39069162833333,NaN,4723.3964876,2,NaN,NaN,NaN
19,12,8,SyncDelta,28,1148_1.7Hz.avi,orch19_zero_1.7Hz.wav,orch,2,9.40616299999965,1,19,102,28,81,91,2,2,1,6.39069162833333,NaN,4737.6964605,2,NaN,NaN,NaN
19,13,8,SyncDelta,80,1082_1.7Hz.avi,dar15_zero_1.7Hz.wav,dar,2,9.47500899999977,0,19,49,14,64,80,4,13,1,6.39069162833333,NaN,4748.663162,2,NaN,NaN,NaN
19,14,8,SyncDelta,58,1323_1.7Hz.avi,acoustic29_zero_1.7Hz.wav,acoustic,1,6.94496629999958,0,19,60,4,44,58,4,10,5,6.39069162833333,NaN,4761.4465551,2,NaN,NaN,NaN
19,15,8,SyncDelta,60,1249_1.7Hz.avi,acoustic20_zero_1.7Hz.wav,acoustic,4,7.21555790000002,1,19,58,44,4,60,4,9,4,6.39069162833333,NaN,4771.4299122,2,NaN,NaN,NaN
19,16,8,SyncDelta,4,1167_1.7Hz.avi,acoustic37_zero_1.7Hz.wav,acoustic,4,9.4404399999994,0,19,4,60,44,58,1,5,3,6.39069162833333,NaN,4781.4632686,2,NaN,NaN,NaN
19,1,9,SyncTheta,53,1197_4Hz.avi,guitar46_zero_4Hz.wav,guitar,4,9.39296509999986,1,19,3,59,84,53,4,5,2,6.77620532,25.0685588216667,5083.1306384,3,NaN,NaN,NaN
19,2,9,SyncTheta,26,1190_4Hz.avi,ep7_zero_4Hz.wav,ep,1,7.87072429999989,0,19,6,26,99,41,2,7,1,6.77620532,25.0685588216667,5095.2139888,3,NaN,NaN,NaN
19,3,9,SyncTheta,54,1181_4Hz.avi,synth12_zero_4Hz.wav,synth,1,10.1315898000003,0,19,61,8,95,54,4,6,2,6.77620532,25.0685588216667,5105.6306263,3,NaN,NaN,NaN
19,4,9,SyncTheta,8,1252_4Hz.avi,synth25_zero_4Hz.wav,synth,2,6.63244620000023,0,19,8,61,54,95,1,2,1,6.77620532,25.0685588216667,5119.0473376,3,NaN,NaN,NaN
19,5,9,SyncTheta,95,1359_4Hz.avi,synth33_zero_4Hz.wav,synth,4,7.49783639999987,0,19,8,95,54,61,2,10,2,6.77620532,25.0685588216667,5128.5473503,3,NaN,NaN,NaN
19,6,9,SyncTheta,3,1156_4Hz.avi,guitar31_zero_4Hz.wav,guitar,1,4.98049270000047,0,19,84,59,53,3,4,8,3,6.77620532,25.0685588216667,5138.0640981,3,NaN,NaN,NaN
19,7,9,SyncTheta,84,1294_4Hz.avi,guitar6_zero_4Hz.wav,guitar,2,10.8691188000003,1,19,53,84,59,3,2,13,3,6.77620532,25.0685588216667,5145.5974271,3,NaN,NaN,NaN
19,8,9,SyncTheta,48,1021_4Hz.avi,willow12_zero_4Hz.wav,willow,4,10.6447149000005,0,19,48,18,92,37,1,11,1,6.77620532,25.0685588216667,5157.8640932,3,NaN,NaN,NaN
19,9,9,SyncTheta,37,1237_4Hz.avi,willow15_zero_4Hz.wav,willow,1,8.81406779999998,0,19,92,48,18,37,4,12,2,6.77620532,25.0685588216667,5170.6641225,3,NaN,NaN,NaN
19,10,9,SyncTheta,18,1101_4Hz.avi,willow13_zero_4Hz.wav,willow,2,9.35595250000006,1,19,92,18,48,37,2,15,4,6.77620532,25.0685588216667,5181.3808519,3,NaN,NaN,NaN
19,11,9,SyncTheta,59,1346_4Hz.avi,guitar33_zero_4Hz.wav,guitar,3,9.01759409999977,0,19,53,3,84,59,4,3,1,6.77620532,25.0685588216667,5192.6642099,3,NaN,NaN,NaN
19,12,9,SyncTheta,92,1030_4Hz.avi,willow23_zero_4Hz.wav,willow,3,14.2457598000001,0,19,37,92,18,48,2,1,1,6.77620532,25.0685588216667,5203.6808718,3,NaN,NaN,NaN
19,13,9,SyncTheta,61,1207_4Hz.avi,synth46_zero_4Hz.wav,synth,4,7.67254370000046,0,19,61,95,8,54,1,16,1,6.77620532,25.0685588216667,5219.7142967,3,NaN,NaN,NaN
19,14,9,SyncTheta,99,1173_4Hz.avi,ep6_zero_4Hz.wav,ep,1,4.55046270000003,1,19,99,26,41,6,1,14,4,6.77620532,25.0685588216667,5228.9642691,3,NaN,NaN,NaN
19,15,9,SyncTheta,41,1132_4Hz.avi,ep10_zero_4Hz.wav,ep,1,3.23238760000004,0,19,99,26,6,41,4,9,1,6.77620532,25.0685588216667,5235.9809522,3,NaN,NaN,NaN
19,16,9,SyncTheta,6,1007_4Hz.avi,ep8_zero_4Hz.wav,ep,3,8.31358759999966,1,19,41,26,6,99,3,4,1,6.77620532,25.0685588216667,5241.630983,3,NaN,NaN,NaN
19,1,10,NoFlicker,181,1168_half_amp.avi,choir1_half_amp.wav,choir,4,6.24838030000046,1,19,97,182,139,181,4,12,5,5.94157408833333,25.0685588216667,5445.8148186,3,NaN,NaN,NaN
19,2,10,NoFlicker,190,1427_half_amp.avi,acoustic46_half_amp.wav,acoustic,4,10.4946925000004,0,19,104,190,175,133,2,7,4,5.94157408833333,25.0685588216667,5453.6648639,3,NaN,NaN,NaN
19,3,10,NoFlicker,116,1420_half_amp.avi,dar18_half_amp.wav,dar,4,12.4495421000001,0,19,116,191,147,187,1,9,3,5.94157408833333,25.0685588216667,5467.0148973,3,NaN,NaN,NaN
19,4,10,NoFlicker,187,1164_half_amp.avi,dar12_half_amp.wav,dar,2,7.33910480000031,1,19,191,187,116,147,2,6,5,5.94157408833333,25.0685588216667,5482.1649043,3,NaN,NaN,NaN
19,5,10,NoFlicker,191,1314_half_amp.avi,dar19_half_amp.wav,dar,4,4.83798280000065,1,19,147,116,187,191,4,11,4,5.94157408833333,25.0685588216667,5492.5482938,3,NaN,NaN,NaN
19,6,10,NoFlicker,139,1192_half_amp.avi,choir5_half_amp.wav,choir,1,4.94769120000001,1,19,139,97,182,181,1,14,2,5.94157408833333,25.0685588216667,5500.4149799,3,NaN,NaN,NaN
19,7,10,NoFlicker,182,1277_half_amp.avi,choir39_half_amp.wav,choir,3,7.91113399999995,0,19,181,182,97,139,2,15,4,5.94157408833333,25.0685588216667,5506.7316376,3,NaN,NaN,NaN
19,8,10,NoFlicker,192,1231_half_amp.avi,orch32_half_amp.wav,orch,4,7.52680099999998,0,19,192,158,188,141,1,4,1,5.94157408833333,25.0685588216667,5516.0150181,3,NaN,NaN,NaN
19,9,10,NoFlicker,158,1206_half_amp.avi,orch6_half_amp.wav,orch,1,6.21582330000001,1,19,158,141,192,188,1,5,4,5.94157408833333,25.0685588216667,5526.7650305,3,NaN,NaN,NaN
19,10,10,NoFlicker,188,1036_half_amp.avi,orch26_half_amp.wav,orch,3,8.82127390000005,1,19,192,158,188,141,3,10,4,5.94157408833333,25.0685588216667,5534.7317176,3,NaN,NaN,NaN
19,11,10,NoFlicker,97,1368_half_amp.avi,choir30_half_amp.wav,choir,2,7.27654600000005,0,19,139,181,182,97,4,3,1,5.94157408833333,25.0685588216667,5545.7817306,3,NaN,NaN,NaN
19,12,10,NoFlicker,141,1401_half_amp.avi,orch12_half_amp.wav,orch,3,10.5629941000007,1,19,192,188,141,158,3,2,4,5.94157408833333,25.0685588216667,5554.4817545,3,NaN,NaN,NaN
19,13,10,NoFlicker,147,1304_half_amp.avi,dar10_half_amp.wav,dar,1,4.88604690000011,1,19,147,191,187,116,1,16,5,5.94157408833333,25.0685588216667,5568.2817944,3,NaN,NaN,NaN
19,14,10,NoFlicker,175,1103_half_amp.avi,acoustic10_half_amp.wav,acoustic,1,11.7771412000002,0,19,104,133,190,175,4,13,1,5.94157408833333,25.0685588216667,5576.2152025,3,NaN,NaN,NaN
19,15,10,NoFlicker,104,1111_half_amp.avi,acoustic31_half_amp.wav,acoustic,4,5.75057730000026,1,19,190,133,175,104,4,8,4,5.94157408833333,25.0685588216667,5591.1318777,3,NaN,NaN,NaN
19,16,10,NoFlicker,133,1341_half_amp.avi,acoustic14_half_amp.wav,acoustic,3,7.17253690000052,1,19,175,104,133,190,3,1,4,5.94157408833333,25.0685588216667,5599.3818679,3,NaN,NaN,NaN
19,1,11,SyncDelta,10,1179_1.7Hz.avi,choir4_zero_1.7Hz.wav,choir,2,7.57727320000049,0,19,68,62,13,10,4,4,4,5.80242426666667,25.0685588216667,5813.8990779,3,NaN,NaN,NaN
19,2,11,SyncDelta,1,1064_1.7Hz.avi,acoustic12_zero_1.7Hz.wav,acoustic,1,9.13892889999988,1,19,1,9,47,39,1,9,4,5.80242426666667,25.0685588216667,5824.7824366,3,NaN,NaN,NaN
19,3,11,SyncDelta,31,1404_1.7Hz.avi,dar8_zero_1.7Hz.wav,dar,3,3.28040650000003,1,19,45,56,31,2,3,8,4,5.80242426666667,25.0685588216667,5835.5991358,3,NaN,NaN,NaN
19,4,11,SyncDelta,2,1431_1.7Hz.avi,dar24_zero_1.7Hz.wav,dar,1,3.37310849999994,0,19,45,2,56,31,2,7,4,5.80242426666667,25.0685588216667,5840.899137,3,NaN,NaN,NaN
19,5,11,SyncDelta,45,1203_1.7Hz.avi,dar2_zero_1.7Hz.wav,dar,1,4.14836240000022,1,19,45,31,2,56,1,12,5,5.80242426666667,25.0685588216667,5847.1658802,3,NaN,NaN,NaN
19,6,11,SyncDelta,13,1201_1.7Hz.avi,choir7_zero_1.7Hz.wav,choir,3,9.43872180000017,0,19,62,13,10,68,2,5,1,5.80242426666667,25.0685588216667,5854.3991716,3,NaN,NaN,NaN
19,7,11,SyncDelta,68,1023_1.7Hz.avi,choir3_zero_1.7Hz.wav,choir,1,8.18438329999935,0,19,62,10,13,68,4,14,2,5.80242426666667,25.0685588216667,5865.7826037,3,NaN,NaN,NaN
19,8,11,SyncDelta,33,1136_1.7Hz.avi,orch38_zero_1.7Hz.wav,orch,3,7.2193599000002,1,19,85,17,33,74,3,6,3,5.80242426666667,25.0685588216667,5876.8158984,3,NaN,NaN,NaN
19,9,11,SyncDelta,85,1383_1.7Hz.avi,orch23_zero_1.7Hz.wav,orch,3,6.08719389999987,1,19,33,74,85,17,3,10,2,5.80242426666667,25.0685588216667,5886.4992861,3,NaN,NaN,NaN
19,10,11,SyncDelta,74,1337_1.7Hz.avi,orch24_zero_1.7Hz.wav,orch,2,6.76194839999971,0,19,33,85,17,74,4,11,2,5.80242426666667,25.0685588216667,5895.6826215,3,NaN,NaN,NaN
19,11,11,SyncDelta,62,1058_1.7Hz.avi,choir19_zero_1.7Hz.wav,choir,1,10.5324484000002,1,19,62,10,68,13,1,1,2,5.80242426666667,25.0685588216667,5904.6493302,3,NaN,NaN,NaN
19,12,11,SyncDelta,17,1162_1.7Hz.avi,orch1_zero_1.7Hz.wav,orch,3,7.15781289999995,0,19,17,74,85,33,1,2,2,5.80242426666667,25.0685588216667,5918.2826722,3,NaN,NaN,NaN
19,13,11,SyncDelta,56,1063_1.7Hz.avi,dar16_zero_1.7Hz.wav,dar,2,3.90513300000021,0,19,31,45,56,2,3,16,1,5.80242426666667,25.0685588216667,5927.232695,3,NaN,NaN,NaN
19,14,11,SyncDelta,39,1061_1.7Hz.avi,acoustic11_zero_1.7Hz.wav,acoustic,1,5.26609720000033,0,19,1,9,39,47,3,15,2,5.80242426666667,25.0685588216667,5933.932712,3,NaN,NaN,NaN
19,15,11,SyncDelta,9,1054_1.7Hz.avi,acoustic44_zero_1.7Hz.wav,acoustic,1,6.17698099999961,1,19,9,39,47,1,1,13,4,5.80242426666667,25.0685588216667,5940.8160581,3,NaN,NaN,NaN
19,16,11,SyncDelta,47,1292_1.7Hz.avi,acoustic28_zero_1.7Hz.wav,acoustic,3,5.39022159999968,0,19,39,1,9,47,4,3,1,5.80242426666667,25.0685588216667,5949.4827579,3,NaN,NaN,NaN
19,1,12,AsyncTheta,112,1388_4Hz.avi,guitar39_oneeighty_4Hz.wav,guitar,3,9.6655851000005,0,19,185,115,146,112,4,12,3,6.089674005,25.0685588216667,6167.6833289,3,NaN,NaN,NaN
19,2,12,AsyncTheta,117,1144_4Hz.avi,ep39_oneeighty_4Hz.wav,ep,3,6.56627939999998,1,19,189,132,117,123,3,2,2,6.089674005,25.0685588216667,6180.7166669,3,NaN,NaN,NaN
19,3,12,AsyncTheta,125,1050_4Hz.avi,synth36_oneeighty_4Hz.wav,synth,2,8.28140820000044,0,19,125,127,111,186,1,5,4,6.089674005,25.0685588216667,6188.6500177,3,NaN,NaN,NaN
19,4,12,AsyncTheta,186,1031_4Hz.avi,synth7_oneeighty_4Hz.wav,synth,1,7.72949150000022,1,19,186,111,127,125,1,4,2,6.089674005,25.0685588216667,6199.4333828,3,NaN,NaN,NaN
19,5,12,AsyncTheta,111,1390_4Hz.avi,synth3_oneeighty_4Hz.wav,synth,4,4.25222839999969,1,19,186,127,125,111,4,10,5,6.089674005,25.0685588216667,6208.9000673,3,NaN,NaN,NaN
19,6,12,AsyncTheta,115,1370_4Hz.avi,guitar9_oneeighty_4Hz.wav,guitar,4,7.47481449999941,1,19,112,146,185,115,4,14,2,6.089674005,25.0685588216667,6215.3501358,3,NaN,NaN,NaN
19,7,12,AsyncTheta,146,1005_4Hz.avi,guitar14_oneeighty_4Hz.wav,guitar,4,4.04047460000038,0,19,115,146,112,185,2,15,4,6.089674005,25.0685588216667,6226.1334498,3,NaN,NaN,NaN
19,8,12,AsyncTheta,178,1057_4Hz.avi,willow9_oneeighty_4Hz.wav,willow,3,12.0723945999998,0,19,120,178,119,118,2,7,1,6.089674005,25.0685588216667,6233.2168611,3,NaN,NaN,NaN
19,9,12,AsyncTheta,120,1365_4Hz.avi,willow21_oneeighty_4Hz.wav,willow,2,6.9989015000001,0,19,178,118,119,120,4,8,2,6.089674005,25.0685588216667,6247.1668339,3,NaN,NaN,NaN
19,10,12,AsyncTheta,118,1020_4Hz.avi,willow22_oneeighty_4Hz.wav,willow,4,11.453023,0,19,178,118,119,120,2,11,1,6.089674005,25.0685588216667,6256.1168576,3,NaN,NaN,NaN
19,11,12,AsyncTheta,185,1131_4Hz.avi,guitar45_oneeighty_4Hz.wav,guitar,4,8.82378299999982,1,19,112,146,115,185,4,9,4,6.089674005,25.0685588216667,6270.2336138,3,NaN,NaN,NaN
19,12,12,AsyncTheta,119,1189_4Hz.avi,willow11_oneeighty_4Hz.wav,willow,1,5.99425830000018,1,19,119,120,118,178,1,3,1,6.089674005,25.0685588216667,6280.7002867,3,NaN,NaN,NaN
19,13,12,AsyncTheta,127,1411_4Hz.avi,synth28_oneeighty_4Hz.wav,synth,3,8.65911349999988,0,19,127,125,186,111,1,16,1,6.089674005,25.0685588216667,6289.0169733,3,NaN,NaN,NaN
19,14,12,AsyncTheta,123,1067_4Hz.avi,ep37_oneeighty_4Hz.wav,ep,2,5.20234920000075,0,19,132,189,117,123,4,13,4,6.089674005,25.0685588216667,6299.2003294,3,NaN,NaN,NaN
19,15,12,AsyncTheta,132,1356_4Hz.avi,ep30_oneeighty_4Hz.wav,ep,2,6.22694760000013,0,19,132,189,117,123,1,6,3,6.089674005,25.0685588216667,6306.2170138,3,NaN,NaN,NaN
19,16,12,AsyncTheta,189,1051_4Hz.avi,ep14_oneeighty_4Hz.wav,ep,2,5.04282930000045,1,19,117,189,123,132,2,1,4,6.089674005,25.0685588216667,6315.367034,3,NaN,NaN,NaN
