ParticipantID,TrialNumber,BlockNumber,Condition,ClipID,VideoFile,SoundFile,SoundCategory,Response,RT,Accuracy,ConditionID,Frame1,Frame2,Frame3,Frame4,CorrectKey,EncodingPosition,Rating,BlockDuration,ExperimentDuration,MemoryTestOnset,RunNumber,Age,Handedness,Sex
28,1,1,SyncDelta,149,1200_1.7Hz.avi,willow8_zero_1.7Hz.wav,willow,4,12.0740449,0,28,149,120,178,156,1,2,1,5.91627430666667,NaN,1270.3963041,1,NaN,NaN,NaN
28,2,1,SyncDelta,189,1051_1.7Hz.avi,ep14_zero_1.7Hz.wav,ep,3,5.67277990000002,0,28,189,173,144,132,1,6,2,5.91627430666667,NaN,1284.963056,1,NaN,NaN,NaN
28,3,1,SyncDelta,186,1031_1.7Hz.avi,synth7_zero_1.7Hz.wav,synth,1,12.2203723,0,28,127,186,129,140,2,12,3,5.91627430666667,NaN,1293.779731,1,NaN,NaN,NaN
28,4,1,SyncDelta,185,1131_1.7Hz.avi,guitar45_zero_1.7Hz.wav,guitar,3,4.53661860000011,1,28,161,146,185,170,3,9,3,5.91627430666667,NaN,1308.0631187,1,NaN,NaN,NaN
28,5,1,SyncDelta,120,1365_1.7Hz.avi,willow21_zero_1.7Hz.wav,willow,4,4.5913908,0,28,120,149,156,178,1,3,5,5.91627430666667,NaN,1315.2131846,1,NaN,NaN,NaN
28,6,1,SyncDelta,146,1005_1.7Hz.avi,guitar14_zero_1.7Hz.wav,guitar,2,13.1486361999998,0,28,170,161,185,146,4,11,1,5.91627430666667,NaN,1322.6298747,1,NaN,NaN,NaN
28,7,1,SyncDelta,144,1255_1.7Hz.avi,ep28_zero_1.7Hz.wav,ep,2,10.6110630000001,0,28,132,173,144,189,3,10,1,5.91627430666667,NaN,1338.6465753,1,NaN,NaN,NaN
28,8,1,SyncDelta,129,1286_1.7Hz.avi,synth30_zero_1.7Hz.wav,synth,2,4.20053710000002,0,28,129,140,186,127,1,16,2,5.91627430666667,NaN,1350.813294,1,NaN,NaN,NaN
28,9,1,SyncDelta,173,1348_1.7Hz.avi,ep31_zero_1.7Hz.wav,ep,3,7.64729790000001,0,28,173,189,132,144,1,7,3,5.91627430666667,NaN,1357.0800256,1,NaN,NaN,NaN
28,10,1,SyncDelta,178,1057_1.7Hz.avi,willow9_zero_1.7Hz.wav,willow,4,5.44822210000007,0,28,149,178,156,120,2,13,2,5.91627430666667,NaN,1366.8800476,1,NaN,NaN,NaN
28,11,1,SyncDelta,140,1270_1.7Hz.avi,synth17_zero_1.7Hz.wav,synth,3,8.71934540000007,0,28,127,129,186,140,4,14,5,5.91627430666667,NaN,1374.3967327,1,NaN,NaN,NaN
28,12,1,SyncDelta,156,1060_1.7Hz.avi,willow7_zero_1.7Hz.wav,willow,2,5.34740220000003,1,28,120,156,149,178,2,15,4,5.91627430666667,NaN,1385.7967904,1,NaN,NaN,NaN
28,13,1,SyncDelta,170,1062_1.7Hz.avi,guitar3_zero_1.7Hz.wav,guitar,4,4.23270649999995,1,28,185,146,161,170,4,5,2,5.91627430666667,NaN,1393.4968166,1,NaN,NaN,NaN
28,14,1,SyncDelta,127,1411_1.7Hz.avi,synth28_zero_1.7Hz.wav,synth,2,4.03587169999992,0,28,127,140,129,186,1,4,1,5.91627430666667,NaN,1399.2135433,1,NaN,NaN,NaN
28,15,1,SyncDelta,132,1356_1.7Hz.avi,ep30_zero_1.7Hz.wav,ep,3,6.3206118999999,0,28,173,132,144,189,2,1,3,5.91627430666667,NaN,1405.0635698,1,NaN,NaN,NaN
28,16,1,SyncDelta,161,1433_1.7Hz.avi,guitar2_zero_1.7Hz.wav,guitar,2,4.62904350000008,0,28,185,170,161,146,3,8,3,5.91627430666667,NaN,1413.9302366,1,NaN,NaN,NaN
28,1,2,SyncTheta,174,1119_4Hz.avi,orch45_zero_4Hz.wav,orch,2,7.30230499999993,1,28,141,174,145,192,2,8,4,5.42662456166667,NaN,1610.3144674,1,NaN,NaN,NaN
28,2,2,SyncTheta,113,1037_4Hz.avi,acoustic23_zero_4Hz.wav,acoustic,1,3.32012490000011,1,28,113,190,104,169,1,9,5,5.42662456166667,NaN,1619.8144843,1,NaN,NaN,NaN
28,3,2,SyncTheta,116,1420_4Hz.avi,dar18_zero_4Hz.wav,dar,1,5.32046439999999,0,28,162,136,116,191,3,4,5,5.42662456166667,NaN,1624.6478351,1,NaN,NaN,NaN
28,4,2,SyncTheta,97,1368_4Hz.avi,choir30_zero_4Hz.wav,choir,4,8.3349553999999,1,28,124,160,182,97,4,5,5,5.42662456166667,NaN,1631.931197,1,NaN,NaN,NaN
28,5,2,SyncTheta,141,1401_4Hz.avi,orch12_zero_4Hz.wav,orch,3,9.28669519999994,1,28,145,174,141,192,3,10,5,5.42662456166667,NaN,1642.9479137,1,NaN,NaN,NaN
28,6,2,SyncTheta,124,1183_4Hz.avi,choir24_zero_4Hz.wav,choir,2,4.67626989999985,0,28,160,182,97,124,4,11,2,5.42662456166667,NaN,1653.6979659,1,NaN,NaN,NaN
28,7,2,SyncTheta,169,1083_4Hz.avi,acoustic43_zero_4Hz.wav,acoustic,2,4.78201130000002,0,28,169,104,190,113,1,15,5,5.42662456166667,NaN,1660.9646664,1,NaN,NaN,NaN
28,8,2,SyncTheta,191,1314_4Hz.avi,dar19_zero_4Hz.wav,dar,2,4.3798589999999,1,28,116,191,162,136,2,16,2,5.42662456166667,NaN,1668.4146909,1,NaN,NaN,NaN
28,9,2,SyncTheta,190,1427_4Hz.avi,acoustic46_zero_4Hz.wav,acoustic,2,6.37764950000019,1,28,113,190,104,169,2,13,5,5.42662456166667,NaN,1674.5147564,1,NaN,NaN,NaN
28,10,2,SyncTheta,145,1352_4Hz.avi,orch39_zero_4Hz.wav,orch,4,2.85324130000004,0,28,141,145,174,192,2,12,4,5.42662456166667,NaN,1683.2814266,1,NaN,NaN,NaN
28,11,2,SyncTheta,162,1358_4Hz.avi,dar7_zero_4Hz.wav,dar,3,7.18897089999996,0,28,191,136,116,162,4,6,5,5.42662456166667,NaN,1689.0481218,1,NaN,NaN,NaN
28,12,2,SyncTheta,192,1231_4Hz.avi,orch32_zero_4Hz.wav,orch,2,8.07788470000014,0,28,145,174,192,141,3,14,5,5.42662456166667,NaN,1698.4481609,1,NaN,NaN,NaN
28,13,2,SyncTheta,160,1421_4Hz.avi,choir13_zero_4Hz.wav,choir,4,11.3156910999999,0,28,97,124,160,182,3,1,1,5.42662456166667,NaN,1709.11487,1,NaN,NaN,NaN
28,14,2,SyncTheta,136,1175_4Hz.avi,dar4_zero_4Hz.wav,dar,4,8.80756260000021,1,28,116,162,191,136,4,2,4,5.42662456166667,NaN,1721.964967,1,NaN,NaN,NaN
28,15,2,SyncTheta,104,1111_4Hz.avi,acoustic31_zero_4Hz.wav,acoustic,4,4.41683339999986,1,28,113,190,169,104,4,7,5,5.42662456166667,NaN,1733.5483171,1,NaN,NaN,NaN
28,16,2,SyncTheta,182,1277_4Hz.avi,choir39_zero_4Hz.wav,choir,2,4.14236849999998,0,28,97,124,160,182,4,3,2,5.42662456166667,NaN,1740.1316794,1,NaN,NaN,NaN
28,1,3,AsyncTheta,66,1215_4Hz.avi,willow18_oneeighty_4Hz.wav,willow,4,9.02614040000003,1,28,22,27,55,66,4,8,4,5.306544275,NaN,1921.5991522,1,NaN,NaN,NaN
28,2,3,AsyncTheta,65,1013_4Hz.avi,ep22_oneeighty_4Hz.wav,ep,4,3.74937960000011,0,28,16,86,65,24,3,6,3,5.306544275,NaN,1932.2325274,1,NaN,NaN,NaN
28,3,3,AsyncTheta,50,1049_4Hz.avi,synth43_oneeighty_4Hz.wav,synth,1,5.86456450000014,0,28,35,70,50,71,3,4,3,5.306544275,NaN,1939.1492293,1,NaN,NaN,NaN
28,4,3,AsyncTheta,15,1422_4Hz.avi,guitar37_oneeighty_4Hz.wav,guitar,3,6.77836040000011,1,28,73,67,15,7,3,7,3,5.306544275,NaN,1947.2325936,1,NaN,NaN,NaN
28,5,3,AsyncTheta,55,1044_4Hz.avi,willow4_oneeighty_4Hz.wav,willow,1,5.40780289999998,0,28,27,55,66,22,2,10,3,5.306544275,NaN,1956.8993361,1,NaN,NaN,NaN
28,6,3,AsyncTheta,73,1369_4Hz.avi,guitar19_oneeighty_4Hz.wav,guitar,2,6.62593240000001,1,28,15,73,67,7,2,9,4,5.306544275,NaN,1963.7993687,1,NaN,NaN,NaN
28,7,3,AsyncTheta,24,1217_4Hz.avi,ep44_oneeighty_4Hz.wav,ep,4,4.46101350000004,0,28,65,16,24,86,3,13,5,5.306544275,NaN,1973.1493842,1,NaN,NaN,NaN
28,8,3,AsyncTheta,35,1039_4Hz.avi,synth5_oneeighty_4Hz.wav,synth,4,11.2067299,0,28,50,35,70,71,2,16,3,5.306544275,NaN,1979.6494371,1,NaN,NaN,NaN
28,9,3,AsyncTheta,86,1278_4Hz.avi,ep35_oneeighty_4Hz.wav,ep,3,4.19570360000012,0,28,16,86,65,24,2,11,4,5.306544275,NaN,1993.9828398,1,NaN,NaN,NaN
28,10,3,AsyncTheta,22,1212_4Hz.avi,willow20_oneeighty_4Hz.wav,willow,1,7.97876099999985,1,28,22,27,55,66,1,12,4,5.306544275,NaN,2001.5161723,1,NaN,NaN,NaN
28,11,3,AsyncTheta,70,1093_4Hz.avi,synth6_oneeighty_4Hz.wav,synth,2,7.06049469999994,0,28,70,71,50,35,1,14,5,5.306544275,NaN,2011.5995823,1,NaN,NaN,NaN
28,12,3,AsyncTheta,27,1202_4Hz.avi,willow16_oneeighty_4Hz.wav,willow,2,3.19123400000012,1,28,55,27,66,22,2,15,3,5.306544275,NaN,2020.9162892,1,NaN,NaN,NaN
28,13,3,AsyncTheta,67,1310_4Hz.avi,guitar21_oneeighty_4Hz.wav,guitar,4,5.32618690000004,0,28,15,7,67,73,3,3,3,5.306544275,NaN,2026.6662815,1,NaN,NaN,NaN
28,14,3,AsyncTheta,71,1076_4Hz.avi,synth21_oneeighty_4Hz.wav,synth,2,10.7593136999999,0,28,70,35,50,71,4,1,3,5.306544275,NaN,2034.282977,1,NaN,NaN,NaN
28,15,3,AsyncTheta,16,1442_4Hz.avi,ep34_oneeighty_4Hz.wav,ep,1,4.33765570000014,0,28,65,86,24,16,4,2,2,5.306544275,NaN,2048.133038,1,NaN,NaN,NaN
28,16,3,AsyncTheta,7,1017_4Hz.avi,guitar47_oneeighty_4Hz.wav,guitar,3,7.09068389999993,0,28,15,7,67,73,2,5,5,5.306544275,NaN,2055.6497447,1,NaN,NaN,NaN
28,1,4,NoFlicker,17,1162_half_amp.avi,orch1_half_amp.wav,orch,3,5.38330629999973,0,28,17,28,81,33,1,3,3,4.96112833666667,NaN,2235.3838773,1,NaN,NaN,NaN
28,2,4,NoFlicker,4,1167_half_amp.avi,acoustic37_half_amp.wav,acoustic,4,7.20791419999978,1,28,9,1,44,4,4,4,5,4.96112833666667,NaN,2243.5339327,1,NaN,NaN,NaN
28,3,4,NoFlicker,49,1221_half_amp.avi,dar21_half_amp.wav,dar,4,3.70877109999992,1,28,31,14,2,49,4,5,5,4.96112833666667,NaN,2252.767273,1,NaN,NaN,NaN
28,4,4,NoFlicker,10,1179_half_amp.avi,choir4_half_amp.wav,choir,1,7.04664670000011,0,28,13,10,63,11,2,12,1,4.96112833666667,NaN,2258.0672961,1,NaN,NaN,NaN
28,5,4,NoFlicker,81,1444_half_amp.avi,orch4_half_amp.wav,orch,2,4.55170169999974,1,28,17,81,33,28,2,8,4,4.96112833666667,NaN,2267.4007086,1,NaN,NaN,NaN
28,6,4,NoFlicker,11,1448_half_amp.avi,choir36_half_amp.wav,choir,1,5.17959309999969,1,28,11,10,63,13,1,15,5,4.96112833666667,NaN,2275.1840679,1,NaN,NaN,NaN
28,7,4,NoFlicker,1,1064_half_amp.avi,acoustic12_half_amp.wav,acoustic,3,5.35614179999993,1,28,9,4,1,44,3,13,5,4.96112833666667,NaN,2283.2841116,1,NaN,NaN,NaN
28,8,4,NoFlicker,2,1431_half_amp.avi,dar24_half_amp.wav,dar,1,3.27747700000009,1,28,2,14,49,31,1,16,4,4.96112833666667,NaN,2290.8841101,1,NaN,NaN,NaN
28,9,4,NoFlicker,44,1254_half_amp.avi,acoustic48_half_amp.wav,acoustic,1,3.82744119999961,1,28,44,4,9,1,1,7,5,4.96112833666667,NaN,2297.2341322,1,NaN,NaN,NaN
28,10,4,NoFlicker,33,1136_half_amp.avi,orch38_half_amp.wav,orch,3,5.99739099999988,0,28,33,17,28,81,1,9,5,4.96112833666667,NaN,2303.1175254,1,NaN,NaN,NaN
28,11,4,NoFlicker,14,1416_half_amp.avi,dar1_half_amp.wav,dar,1,6.82448680000016,1,28,14,31,2,49,1,11,4,4.96112833666667,NaN,2312.3008661,1,NaN,NaN,NaN
28,12,4,NoFlicker,28,1148_half_amp.avi,orch19_half_amp.wav,orch,4,9.82344689999991,0,28,28,33,17,81,1,14,4,4.96112833666667,NaN,2320.7675673,1,NaN,NaN,NaN
28,13,4,NoFlicker,13,1201_half_amp.avi,choir7_half_amp.wav,choir,1,3.94897010000022,0,28,10,63,13,11,3,6,1,4.96112833666667,NaN,2333.1509699,1,NaN,NaN,NaN
28,14,4,NoFlicker,31,1404_half_amp.avi,dar8_half_amp.wav,dar,4,5.17288580000013,1,28,49,14,2,31,4,1,5,4.96112833666667,NaN,2339.6509857,1,NaN,NaN,NaN
28,15,4,NoFlicker,9,1054_half_amp.avi,acoustic44_half_amp.wav,acoustic,4,7.14946729999974,1,28,1,4,44,9,4,2,4,4.96112833666667,NaN,2347.3010549,1,NaN,NaN,NaN
28,16,4,NoFlicker,63,1128_half_amp.avi,choir26_half_amp.wav,choir,2,3.55735960000038,1,28,11,63,13,10,2,10,4,4.96112833666667,NaN,2356.9344263,1,NaN,NaN,NaN
28,1,5,SyncDelta,153,1157_1.7Hz.avi,willow1_zero_1.7Hz.wav,willow,1,5.50666090000004,1,28,153,130,171,119,1,4,5,6.24447745666667,NaN,2653.4023015,2,NaN,NaN,NaN
28,2,5,SyncDelta,138,1149_1.7Hz.avi,ep2_zero_1.7Hz.wav,ep,3,7.37253830000009,1,28,123,180,138,166,3,3,5,6.24447745666667,NaN,2661.7856373,2,NaN,NaN,NaN
28,3,5,SyncDelta,184,1052_1.7Hz.avi,synth40_zero_1.7Hz.wav,synth,4,16.5586185999996,1,28,128,125,135,184,4,6,1,6.24447745666667,NaN,2671.3190459,2,NaN,NaN,NaN
28,4,5,SyncDelta,168,1204_1.7Hz.avi,guitar36_zero_1.7Hz.wav,guitar,2,4.7092547000002,1,28,151,168,183,115,2,14,5,6.24447745666667,NaN,2689.269124,2,NaN,NaN,NaN
28,5,5,SyncDelta,171,1280_1.7Hz.avi,willow19_zero_1.7Hz.wav,willow,2,6.04352049999989,0,28,171,119,153,130,1,9,3,6.24447745666667,NaN,2696.5691516,2,NaN,NaN,NaN
28,6,5,SyncDelta,115,1370_1.7Hz.avi,guitar9_zero_1.7Hz.wav,guitar,1,8.43058959999962,1,28,115,168,183,151,1,16,2,6.24447745666667,NaN,2705.6191892,2,NaN,NaN,NaN
28,7,5,SyncDelta,166,1227_1.7Hz.avi,ep5_zero_1.7Hz.wav,ep,2,5.75968820000026,1,28,123,166,138,180,2,11,2,6.24447745666667,NaN,2717.2525489,2,NaN,NaN,NaN
28,8,5,SyncDelta,135,1154_1.7Hz.avi,synth38_zero_1.7Hz.wav,synth,1,4.13253579999991,1,28,135,125,128,184,1,15,5,6.24447745666667,NaN,2724.5859076,2,NaN,NaN,NaN
28,9,5,SyncDelta,123,1067_1.7Hz.avi,ep37_zero_1.7Hz.wav,ep,3,6.58619730000009,0,28,166,138,180,123,4,8,4,6.24447745666667,NaN,2731.535938,2,NaN,NaN,NaN
28,10,5,SyncDelta,130,1081_1.7Hz.avi,willow5_zero_1.7Hz.wav,willow,3,7.08051169999999,1,28,119,171,130,153,3,10,1,6.24447745666667,NaN,2741.4026795,2,NaN,NaN,NaN
28,11,5,SyncDelta,125,1050_1.7Hz.avi,synth36_zero_1.7Hz.wav,synth,2,3.77614679999988,0,28,128,135,125,184,3,12,4,6.24447745666667,NaN,2751.2193908,2,NaN,NaN,NaN
28,12,5,SyncDelta,119,1189_1.7Hz.avi,willow11_zero_1.7Hz.wav,willow,4,12.6782610999999,0,28,153,119,171,130,2,13,5,6.24447745666667,NaN,2758.1027352,2,NaN,NaN,NaN
28,13,5,SyncDelta,183,1374_1.7Hz.avi,guitar16_zero_1.7Hz.wav,guitar,1,10.0755669,0,28,151,115,183,168,3,2,4,6.24447745666667,NaN,2773.7361209,2,NaN,NaN,NaN
28,14,5,SyncDelta,128,1269_1.7Hz.avi,synth14_zero_1.7Hz.wav,synth,2,9.37228819999973,0,28,125,184,135,128,4,5,5,6.24447745666667,NaN,2786.636182,2,NaN,NaN,NaN
28,15,5,SyncDelta,180,1006_1.7Hz.avi,ep4_zero_1.7Hz.wav,ep,2,7.76921250000032,1,28,123,180,166,138,2,1,1,6.24447745666667,NaN,2799.3362598,2,NaN,NaN,NaN
28,16,5,SyncDelta,151,1259_1.7Hz.avi,guitar43_zero_1.7Hz.wav,guitar,4,8.84157809999988,0,28,151,183,115,168,1,7,4,6.24447745666667,NaN,2809.736283,2,NaN,NaN,NaN
28,1,6,SyncTheta,134,1026_4Hz.avi,orch16_zero_4Hz.wav,orch,1,6.6606968000001,1,28,134,110,142,158,1,4,5,5.38463837,NaN,2986.1370531,2,NaN,NaN,NaN
28,2,6,SyncTheta,79,1071_4Hz.avi,acoustic17_zero_4Hz.wav,acoustic,3,9.85089289999996,1,28,105,133,79,83,3,9,5,5.38463837,NaN,2996.070466,2,NaN,NaN,NaN
28,3,6,SyncTheta,103,1084_4Hz.avi,dar20_zero_4Hz.wav,dar,2,8.66068189999987,1,28,147,103,122,82,2,3,2,5.38463837,NaN,3007.8205143,2,NaN,NaN,NaN
28,4,6,SyncTheta,98,1014_4Hz.avi,choir41_zero_4Hz.wav,choir,3,4.07631760000004,1,28,139,78,98,76,3,12,3,5.38463837,NaN,3019.4871983,2,NaN,NaN,NaN
28,5,6,SyncTheta,142,1155_4Hz.avi,orch9_zero_4Hz.wav,orch,3,4.46830339999997,1,28,110,158,142,134,3,7,5,5.38463837,NaN,3025.9372268,2,NaN,NaN,NaN
28,6,6,SyncTheta,139,1192_4Hz.avi,choir5_zero_4Hz.wav,choir,1,7.21902619999992,0,28,76,78,98,139,4,13,1,5.38463837,NaN,3033.7039301,2,NaN,NaN,NaN
28,7,6,SyncTheta,83,1139_4Hz.avi,acoustic27_zero_4Hz.wav,acoustic,3,6.48182839999981,0,28,79,83,105,133,2,15,3,5.38463837,NaN,3043.437359,2,NaN,NaN,NaN
28,8,6,SyncTheta,82,1449_4Hz.avi,dar17_zero_4Hz.wav,dar,4,8.16210550000005,0,28,82,103,147,122,1,14,1,5.38463837,NaN,3052.4873551,2,NaN,NaN,NaN
28,9,6,SyncTheta,133,1341_4Hz.avi,acoustic14_zero_4Hz.wav,acoustic,2,7.50109890000022,0,28,133,83,79,105,1,11,2,5.38463837,NaN,3063.1207243,2,NaN,NaN,NaN
28,10,6,SyncTheta,110,1443_4Hz.avi,orch3_zero_4Hz.wav,orch,4,4.68180140000004,1,28,134,158,142,110,4,10,5,5.38463837,NaN,3072.220773,2,NaN,NaN,NaN
28,11,6,SyncTheta,147,1304_4Hz.avi,dar10_zero_4Hz.wav,dar,3,9.06235450000031,1,28,103,122,147,82,3,8,3,5.38463837,NaN,3080.0874664,2,NaN,NaN,NaN
28,12,6,SyncTheta,158,1206_4Hz.avi,orch6_zero_4Hz.wav,orch,1,9.08040500000016,0,28,142,110,134,158,4,16,4,5.38463837,NaN,3091.5875146,2,NaN,NaN,NaN
28,13,6,SyncTheta,76,1293_4Hz.avi,choir23_zero_4Hz.wav,choir,4,8.50250649999998,1,28,98,139,78,76,4,2,1,5.38463837,NaN,3103.3709453,2,NaN,NaN,NaN
28,14,6,SyncTheta,122,1289_4Hz.avi,dar3_zero_4Hz.wav,dar,4,5.87235689999989,0,28,147,103,122,82,3,1,3,5.38463837,NaN,3114.6209556,2,NaN,NaN,NaN
28,15,6,SyncTheta,105,1003_4Hz.avi,acoustic6_zero_4Hz.wav,acoustic,4,8.12489640000013,0,28,83,105,79,133,2,5,5,5.38463837,NaN,3122.7876575,2,NaN,NaN,NaN
28,16,6,SyncTheta,78,1301_4Hz.avi,choir11_zero_4Hz.wav,choir,2,8.85657089999995,1,28,139,78,98,76,2,6,5,5.38463837,NaN,3132.9210305,2,NaN,NaN,NaN
28,1,7,NoFlicker,85,1383_half_amp.avi,orch23_half_amp.wav,orch,3,7.20031139999992,1,28,30,102,85,74,3,2,5,4.94480700833333,NaN,3315.3718623,2,NaN,NaN,NaN
28,2,7,NoFlicker,5,1381_half_amp.avi,acoustic1_half_amp.wav,acoustic,1,4.29284689999986,0,28,60,39,5,47,3,9,2,4.94480700833333,NaN,3324.5552017,2,NaN,NaN,NaN
28,3,7,NoFlicker,56,1063_half_amp.avi,dar16_half_amp.wav,dar,2,3.74906009999995,0,28,80,45,56,29,3,7,1,4.94480700833333,NaN,3331.6552341,2,NaN,NaN,NaN
28,4,7,NoFlicker,12,1077_half_amp.avi,choir18_half_amp.wav,choir,1,3.59505439999975,1,28,12,62,72,68,1,10,2,4.94480700833333,NaN,3336.8552736,2,NaN,NaN,NaN
28,5,7,NoFlicker,102,1012_half_amp.avi,orch18_half_amp.wav,orch,4,8.80414350000001,1,28,30,85,74,102,4,6,4,4.94480700833333,NaN,3342.2886128,2,NaN,NaN,NaN
28,6,7,NoFlicker,62,1058_half_amp.avi,choir19_half_amp.wav,choir,2,6.59647049999967,0,28,62,68,12,72,1,11,1,4.94480700833333,NaN,3354.255383,2,NaN,NaN,NaN
28,7,7,NoFlicker,47,1292_half_amp.avi,acoustic28_half_amp.wav,acoustic,1,3.9278961,1,28,47,39,5,60,1,16,1,4.94480700833333,NaN,3363.9720428,2,NaN,NaN,NaN
28,8,7,NoFlicker,80,1082_half_amp.avi,dar15_half_amp.wav,dar,4,4.81687820000025,0,28,80,56,45,29,1,15,1,4.94480700833333,NaN,3370.4554147,2,NaN,NaN,NaN
28,9,7,NoFlicker,60,1249_half_amp.avi,acoustic20_half_amp.wav,acoustic,1,7.78614850000031,0,28,39,47,60,5,3,12,1,4.94480700833333,NaN,3377.3054399,2,NaN,NaN,NaN
28,10,7,NoFlicker,30,1016_half_amp.avi,orch14_half_amp.wav,orch,1,4.06324300000006,0,28,85,30,102,74,2,13,4,4.94480700833333,NaN,3386.9221754,2,NaN,NaN,NaN
28,11,7,NoFlicker,45,1203_half_amp.avi,dar2_half_amp.wav,dar,3,4.3050688999997,0,28,29,80,56,45,4,8,5,4.94480700833333,NaN,3393.7722155,2,NaN,NaN,NaN
28,12,7,NoFlicker,74,1337_half_amp.avi,orch24_half_amp.wav,orch,1,5.1030068,0,28,85,74,102,30,2,14,2,4.94480700833333,NaN,3400.9389034,2,NaN,NaN,NaN
28,13,7,NoFlicker,68,1023_half_amp.avi,choir3_half_amp.wav,choir,2,4.95479439999963,0,28,68,12,62,72,1,4,1,4.94480700833333,NaN,3408.8389393,2,NaN,NaN,NaN
28,14,7,NoFlicker,29,1158_half_amp.avi,dar23_half_amp.wav,dar,2,6.71242350000011,1,28,45,29,80,56,2,1,4,4.94480700833333,NaN,3416.5723029,2,NaN,NaN,NaN
28,15,7,NoFlicker,39,1061_half_amp.avi,acoustic11_half_amp.wav,acoustic,1,6.6014752000001,0,28,5,60,39,47,3,3,3,4.94480700833333,NaN,3425.522348,2,NaN,NaN,NaN
28,16,7,NoFlicker,72,1097_half_amp.avi,choir29_half_amp.wav,choir,4,4.02486959999987,1,28,12,62,68,72,4,5,3,4.94480700833333,NaN,3434.5390241,2,NaN,NaN,NaN
28,1,8,AsyncTheta,32,1360_4Hz.avi,willow10_oneeighty_4Hz.wav,willow,1,7.49644790000002,0,28,18,48,92,32,4,5,2,5.40736673166667,NaN,3616.7898205,2,NaN,NaN,NaN
28,2,8,AsyncTheta,99,1173_4Hz.avi,ep6_oneeighty_4Hz.wav,ep,3,3.33058649999975,1,28,6,41,99,25,3,4,5,5.40736673166667,NaN,3625.9398608,2,NaN,NaN,NaN
28,3,8,AsyncTheta,8,1252_4Hz.avi,synth25_oneeighty_4Hz.wav,synth,3,5.27315539999972,1,28,61,51,8,95,3,2,4,5.40736673166667,NaN,3631.6732138,2,NaN,NaN,NaN
28,4,8,AsyncTheta,84,1294_4Hz.avi,guitar6_oneeighty_4Hz.wav,guitar,3,7.46192070000006,1,28,46,59,84,3,3,10,1,5.40736673166667,NaN,3639.5399443,2,NaN,NaN,NaN
28,5,8,AsyncTheta,48,1021_4Hz.avi,willow12_oneeighty_4Hz.wav,willow,4,6.961679,0,28,48,92,32,18,1,12,4,5.40736673166667,NaN,3649.3066221,2,NaN,NaN,NaN
28,6,8,AsyncTheta,3,1156_4Hz.avi,guitar31_oneeighty_4Hz.wav,guitar,3,8.4960031999999,0,28,3,84,59,46,1,15,3,5.40736673166667,NaN,3659.5066726,2,NaN,NaN,NaN
28,7,8,AsyncTheta,6,1007_4Hz.avi,ep8_oneeighty_4Hz.wav,ep,1,5.34446369999978,0,28,25,41,99,6,4,9,2,5.40736673166667,NaN,3670.2067204,2,NaN,NaN,NaN
28,8,8,AsyncTheta,51,1331_4Hz.avi,synth47_oneeighty_4Hz.wav,synth,2,6.96340199999986,1,28,61,51,95,8,2,13,1,5.40736673166667,NaN,3678.5401192,2,NaN,NaN,NaN
28,9,8,AsyncTheta,25,1094_4Hz.avi,ep15_oneeighty_4Hz.wav,ep,3,6.55617269999993,1,28,6,41,25,99,3,8,3,5.40736673166667,NaN,3687.7401562,2,NaN,NaN,NaN
28,10,8,AsyncTheta,18,1101_4Hz.avi,willow13_oneeighty_4Hz.wav,willow,2,8.73815210000021,0,28,18,32,48,92,1,14,1,5.40736673166667,NaN,3696.4735275,2,NaN,NaN,NaN
28,11,8,AsyncTheta,61,1207_4Hz.avi,synth46_oneeighty_4Hz.wav,synth,1,11.1912014,0,28,95,8,61,51,3,11,1,5.40736673166667,NaN,3707.7568801,2,NaN,NaN,NaN
28,12,8,AsyncTheta,92,1030_4Hz.avi,willow23_oneeighty_4Hz.wav,willow,2,4.14341289999993,0,28,32,48,92,18,3,16,3,5.40736673166667,NaN,3721.4569445,2,NaN,NaN,NaN
28,13,8,AsyncTheta,59,1346_4Hz.avi,guitar33_oneeighty_4Hz.wav,guitar,4,4.1462905999997,1,28,3,46,84,59,4,6,4,5.40736673166667,NaN,3727.8236329,2,NaN,NaN,NaN
28,14,8,AsyncTheta,95,1359_4Hz.avi,synth33_oneeighty_4Hz.wav,synth,3,12.3845010999999,1,28,51,8,95,61,3,1,4,5.40736673166667,NaN,3733.9070006,2,NaN,NaN,NaN
28,15,8,AsyncTheta,41,1132_4Hz.avi,ep10_oneeighty_4Hz.wav,ep,3,5.40399230000003,0,28,41,99,6,25,1,3,2,5.40736673166667,NaN,3749.6070639,2,NaN,NaN,NaN
28,16,8,AsyncTheta,46,1210_4Hz.avi,guitar48_oneeighty_4Hz.wav,guitar,4,6.67674750000015,0,28,59,46,84,3,2,7,1,5.40736673166667,NaN,3756.4404286,2,NaN,NaN,NaN
28,1,9,NoFlicker,42,1339_half_amp.avi,orch31_half_amp.wav,orch,1,5.97343950000004,1,28,42,36,57,91,1,5,4,5.73255946166667,23.1121241133333,4049.1249973,3,NaN,NaN,NaN
28,2,9,NoFlicker,21,1112_half_amp.avi,acoustic32_half_amp.wav,acoustic,2,8.39588580000009,0,28,20,23,58,21,4,4,2,5.73255946166667,23.1121241133333,4056.7750138,3,NaN,NaN,NaN
28,3,9,NoFlicker,40,1239_half_amp.avi,dar6_half_amp.wav,dar,4,5.65262339999981,1,28,43,34,64,40,4,6,1,5.73255946166667,23.1121241133333,4066.608443,3,NaN,NaN,NaN
28,4,9,NoFlicker,19,1247_half_amp.avi,choir38_half_amp.wav,choir,2,6.20768420000013,0,28,52,69,38,19,4,11,4,5.73255946166667,23.1121241133333,4075.5250857,3,NaN,NaN,NaN
28,5,9,NoFlicker,91,1340_half_amp.avi,orch46_half_amp.wav,orch,1,12.3830449000002,1,28,91,57,42,36,1,8,1,5.73255946166667,23.1121241133333,4083.1751178,3,NaN,NaN,NaN
28,6,9,NoFlicker,69,1216_half_amp.avi,choir32_half_amp.wav,choir,1,10.404614,0,28,52,19,38,69,4,16,1,5.73255946166667,23.1121241133333,4097.5418695,3,NaN,NaN,NaN
28,7,9,NoFlicker,23,1330_half_amp.avi,acoustic47_half_amp.wav,acoustic,1,4.46246940000037,0,28,20,23,58,21,2,12,5,5.73255946166667,23.1121241133333,4110.9252766,3,NaN,NaN,NaN
28,8,9,NoFlicker,64,1098_half_amp.avi,dar11_half_amp.wav,dar,1,8.14886269999988,0,28,43,34,40,64,4,14,1,5.73255946166667,23.1121241133333,4116.7919639,3,NaN,NaN,NaN
28,9,9,NoFlicker,20,1236_half_amp.avi,acoustic25_half_amp.wav,acoustic,3,8.63421620000008,0,28,23,21,58,20,4,10,5,5.73255946166667,23.1121241133333,4127.2420114,3,NaN,NaN,NaN
28,10,9,NoFlicker,36,1284_half_amp.avi,orch29_half_amp.wav,orch,4,3.87188349999997,1,28,42,91,57,36,4,13,4,5.73255946166667,23.1121241133333,4138.6420253,3,NaN,NaN,NaN
28,11,9,NoFlicker,43,1141_half_amp.avi,dar13_half_amp.wav,dar,3,5.80787250000049,1,28,64,40,43,34,3,9,1,5.73255946166667,23.1121241133333,4145.0420557,3,NaN,NaN,NaN
28,12,9,NoFlicker,57,1309_half_amp.avi,orch7_half_amp.wav,orch,3,6.07101440000042,1,28,36,42,57,91,3,15,4,5.73255946166667,23.1121241133333,4154.192147,3,NaN,NaN,NaN
28,13,9,NoFlicker,52,1387_half_amp.avi,choir2_half_amp.wav,choir,3,5.06852849999996,0,28,69,38,19,52,4,1,2,5.73255946166667,23.1121241133333,4161.8421251,3,NaN,NaN,NaN
28,14,9,NoFlicker,34,1319_half_amp.avi,dar22_half_amp.wav,dar,3,4.67798700000003,1,28,64,40,34,43,3,2,5,5.73255946166667,23.1121241133333,4169.0921861,3,NaN,NaN,NaN
28,15,9,NoFlicker,58,1323_half_amp.avi,acoustic29_half_amp.wav,acoustic,1,5.09882169999946,1,28,58,23,20,21,1,3,4,5.73255946166667,23.1121241133333,4176.3755895,3,NaN,NaN,NaN
28,16,9,NoFlicker,38,1184_half_amp.avi,choir33_half_amp.wav,choir,1,6.49428910000006,1,28,38,52,69,19,1,7,2,5.73255946166667,23.1121241133333,4184.6089225,3,NaN,NaN,NaN
28,1,10,SyncDelta,157,1225_1.7Hz.avi,willow14_zero_1.7Hz.wav,willow,3,68.6362159999999,0,28,167,118,152,157,4,1,3,6.13780816833333,23.1121241133333,4361.6097219,3,NaN,NaN,NaN
28,2,10,SyncDelta,117,1144_1.7Hz.avi,ep39_zero_1.7Hz.wav,ep,1,6.23171199999979,0,28,176,177,150,117,4,4,1,6.13780816833333,23.1121241133333,4433.5932953,3,NaN,NaN,NaN
28,3,10,SyncDelta,163,1441_1.7Hz.avi,synth27_zero_1.7Hz.wav,synth,2,6.3636690000003,1,28,155,163,131,111,2,7,1,6.13780816833333,23.1121241133333,4442.1933254,3,NaN,NaN,NaN
28,4,10,SyncDelta,112,1388_1.7Hz.avi,guitar39_zero_1.7Hz.wav,guitar,2,6.11976949999917,0,28,179,172,112,164,3,10,3,6.13780816833333,23.1121241133333,4451.4933643,3,NaN,NaN,NaN
28,5,10,SyncDelta,152,1445_1.7Hz.avi,willow2_zero_1.7Hz.wav,willow,1,5.7034378999997,0,28,157,118,152,167,3,8,1,6.13780816833333,23.1121241133333,4460.2934037,3,NaN,NaN,NaN
28,6,10,SyncDelta,172,1350_1.7Hz.avi,guitar10_zero_1.7Hz.wav,guitar,1,7.33519689999957,0,28,164,179,172,112,3,15,4,6.13780816833333,23.1121241133333,4467.8434254,3,NaN,NaN,NaN
28,7,10,SyncDelta,177,1283_1.7Hz.avi,ep38_zero_1.7Hz.wav,ep,2,10.3383131999999,0,28,177,117,176,150,1,13,2,6.13780816833333,23.1121241133333,4476.7934642,3,NaN,NaN,NaN
28,8,10,SyncDelta,155,1042_1.7Hz.avi,synth10_zero_1.7Hz.wav,synth,3,6.89606679999997,0,28,111,155,163,131,2,14,1,6.13780816833333,23.1121241133333,4489.5935753,3,NaN,NaN,NaN
28,9,10,SyncDelta,176,1405_1.7Hz.avi,ep46_zero_1.7Hz.wav,ep,2,5.88854900000024,0,28,117,177,176,150,3,11,1,6.13780816833333,23.1121241133333,4499.2768896,3,NaN,NaN,NaN
28,10,10,SyncDelta,118,1020_1.7Hz.avi,willow22_zero_1.7Hz.wav,willow,2,6.37982079999983,0,28,152,157,118,167,3,12,1,6.13780816833333,23.1121241133333,4507.1436191,3,NaN,NaN,NaN
28,11,10,SyncDelta,111,1390_1.7Hz.avi,synth3_zero_1.7Hz.wav,synth,2,5.10102819999975,1,28,163,111,155,131,2,9,2,6.13780816833333,23.1121241133333,4516.6103222,3,NaN,NaN,NaN
28,12,10,SyncDelta,167,1177_1.7Hz.avi,willow24_zero_1.7Hz.wav,willow,2,5.04922089999945,0,28,152,118,157,167,4,16,3,6.13780816833333,23.1121241133333,4524.4603236,3,NaN,NaN,NaN
28,13,10,SyncDelta,179,1186_1.7Hz.avi,guitar30_zero_1.7Hz.wav,guitar,1,4.91852670000026,1,28,179,112,172,164,1,2,4,6.13780816833333,23.1121241133333,4532.1770361,3,NaN,NaN,NaN
28,14,10,SyncDelta,131,1366_1.7Hz.avi,synth34_zero_1.7Hz.wav,synth,4,5.29663840000012,0,28,131,111,163,155,1,5,1,6.13780816833333,23.1121241133333,4539.5103817,3,NaN,NaN,NaN
28,15,10,SyncDelta,150,1394_1.7Hz.avi,ep11_zero_1.7Hz.wav,ep,3,3.87925850000011,0,28,177,176,117,150,4,3,1,6.13780816833333,23.1121241133333,4547.2770857,3,NaN,NaN,NaN
28,16,10,SyncDelta,164,1087_1.7Hz.avi,guitar17_zero_1.7Hz.wav,guitar,1,6.01223680000021,0,28,112,172,164,179,3,6,2,6.13780816833333,23.1121241133333,4553.4938076,3,NaN,NaN,NaN
28,1,11,SyncTheta,143,1127_4Hz.avi,orch11_zero_4Hz.wav,orch,4,7.21291790000032,1,28,188,165,137,143,4,1,4,5.11630422166667,23.1121241133333,4745.161268,3,NaN,NaN,NaN
28,2,11,SyncTheta,107,1265_4Hz.avi,acoustic16_zero_4Hz.wav,acoustic,1,5.08687009999994,1,28,107,96,148,175,1,3,1,5.11630422166667,23.1121241133333,4755.1613021,3,NaN,NaN,NaN
28,3,11,SyncTheta,187,1164_4Hz.avi,dar12_zero_4Hz.wav,dar,1,7.06844149999961,1,28,187,114,126,154,1,11,4,5.11630422166667,23.1121241133333,4763.2780399,3,NaN,NaN,NaN
28,4,11,SyncTheta,121,1354_4Hz.avi,choir22_zero_4Hz.wav,choir,4,7.79115110000021,0,28,181,159,121,88,3,7,1,5.11630422166667,23.1121241133333,4773.3780447,3,NaN,NaN,NaN
28,5,11,SyncTheta,137,1303_4Hz.avi,orch10_zero_4Hz.wav,orch,3,4.64208640000015,1,28,143,188,137,165,3,10,2,5.11630422166667,23.1121241133333,4784.4114269,3,NaN,NaN,NaN
28,6,11,SyncTheta,88,1191_4Hz.avi,choir20_zero_4Hz.wav,choir,1,4.48562500000025,0,28,181,159,88,121,3,14,4,5.11630422166667,23.1121241133333,4790.6781277,3,NaN,NaN,NaN
28,7,11,SyncTheta,96,1027_4Hz.avi,acoustic40_zero_4Hz.wav,acoustic,2,5.10826439999983,1,28,175,96,107,148,2,9,2,5.11630422166667,23.1121241133333,4796.7614831,3,NaN,NaN,NaN
28,8,11,SyncTheta,114,1322_4Hz.avi,dar14_zero_4Hz.wav,dar,2,5.91565040000023,1,28,126,114,187,154,2,13,2,5.11630422166667,23.1121241133333,4804.6948507,3,NaN,NaN,NaN
28,9,11,SyncTheta,175,1103_4Hz.avi,acoustic10_zero_4Hz.wav,acoustic,3,4.45679529999961,0,28,96,175,148,107,2,8,3,5.11630422166667,23.1121241133333,4812.411564,3,NaN,NaN,NaN
28,10,11,SyncTheta,188,1036_4Hz.avi,orch26_zero_4Hz.wav,orch,1,4.37213799999972,0,28,165,143,188,137,3,15,1,5.11630422166667,23.1121241133333,4819.7116015,3,NaN,NaN,NaN
28,11,11,SyncTheta,154,1074_4Hz.avi,dar5_zero_4Hz.wav,dar,4,3.81733290000011,0,28,114,187,154,126,3,12,1,5.11630422166667,23.1121241133333,4825.5616125,3,NaN,NaN,NaN
28,12,11,SyncTheta,165,1410_4Hz.avi,orch43_zero_4Hz.wav,orch,3,7.00691169999936,0,28,165,143,188,137,1,16,2,5.11630422166667,23.1121241133333,4831.6616688,3,NaN,NaN,NaN
28,13,11,SyncTheta,181,1168_4Hz.avi,choir1_zero_4Hz.wav,choir,3,4.74070739999934,0,28,88,121,159,181,4,5,4,5.11630422166667,23.1121241133333,4840.1117031,3,NaN,NaN,NaN
28,14,11,SyncTheta,126,1298_4Hz.avi,dar9_zero_4Hz.wav,dar,1,5.70067569999992,0,28,154,126,114,187,2,4,1,5.11630422166667,23.1121241133333,4846.6783978,3,NaN,NaN,NaN
28,15,11,SyncTheta,148,1121_4Hz.avi,acoustic26_zero_4Hz.wav,acoustic,1,5.33539019999989,0,28,175,107,148,96,3,2,2,5.11630422166667,23.1121241133333,4855.0451217,3,NaN,NaN,NaN
28,16,11,SyncTheta,159,1091_4Hz.avi,choir8_zero_4Hz.wav,choir,4,4.71741539999948,0,28,88,181,159,121,3,6,1,5.11630422166667,23.1121241133333,4861.8951008,3,NaN,NaN,NaN
28,1,12,AsyncTheta,75,1040_4Hz.avi,willow17_oneeighty_4Hz.wav,willow,3,7.15759950000029,0,28,75,37,94,108,1,11,3,5.11858747666667,23.1121241133333,5041.2458824,3,NaN,NaN,NaN
28,2,12,AsyncTheta,106,1113_4Hz.avi,ep29_oneeighty_4Hz.wav,ep,1,5.43368049999935,1,28,106,26,87,101,1,7,5,5.11858747666667,23.1121241133333,5051.4292578,3,NaN,NaN,NaN
28,3,12,AsyncTheta,54,1181_4Hz.avi,synth12_oneeighty_4Hz.wav,synth,2,3.4078571,0,28,109,100,54,89,3,6,5,5.11858747666667,23.1121241133333,5059.3293283,3,NaN,NaN,NaN
28,4,12,AsyncTheta,90,1273_4Hz.avi,guitar23_oneeighty_4Hz.wav,guitar,3,9.43335690000004,0,28,93,53,77,90,4,4,1,5.11858747666667,23.1121241133333,5064.1626487,3,NaN,NaN,NaN
28,5,12,AsyncTheta,108,1415_4Hz.avi,willow3_oneeighty_4Hz.wav,willow,3,8.51943780000056,1,28,94,75,108,37,3,14,1,5.11858747666667,23.1121241133333,5076.5460428,3,NaN,NaN,NaN
28,6,12,AsyncTheta,93,1046_4Hz.avi,guitar18_oneeighty_4Hz.wav,guitar,3,4.04634870000064,1,28,90,53,93,77,3,13,3,5.11858747666667,23.1121241133333,5086.5794522,3,NaN,NaN,NaN
28,7,12,AsyncTheta,101,1295_4Hz.avi,ep40_oneeighty_4Hz.wav,ep,2,5.67531480000071,1,28,87,101,106,26,2,10,2,5.11858747666667,23.1121241133333,5093.329443,3,NaN,NaN,NaN
28,8,12,AsyncTheta,109,1299_4Hz.avi,synth18_oneeighty_4Hz.wav,synth,1,4.40010900000016,0,28,54,100,89,109,4,12,3,5.11858747666667,23.1121241133333,5100.8295049,3,NaN,NaN,NaN
28,9,12,AsyncTheta,87,1142_4Hz.avi,ep3_oneeighty_4Hz.wav,ep,4,4.13354359999994,1,28,26,106,101,87,4,8,1,5.11858747666667,23.1121241133333,5108.3128741,3,NaN,NaN,NaN
28,10,12,AsyncTheta,94,1109_4Hz.avi,willow6_oneeighty_4Hz.wav,willow,3,8.11120029999984,0,28,37,108,75,94,4,15,4,5.11858747666667,23.1121241133333,5115.5795688,3,NaN,NaN,NaN
28,11,12,AsyncTheta,100,1107_4Hz.avi,synth23_oneeighty_4Hz.wav,synth,2,7.91756100000021,0,28,54,109,100,89,3,9,1,5.11858747666667,23.1121241133333,5125.5796269,3,NaN,NaN,NaN
28,12,12,AsyncTheta,37,1237_4Hz.avi,willow15_oneeighty_4Hz.wav,willow,4,5.66759400000046,1,28,108,94,75,37,4,16,5,5.11858747666667,23.1121241133333,5135.1129868,3,NaN,NaN,NaN
28,13,12,AsyncTheta,77,1008_4Hz.avi,guitar42_oneeighty_4Hz.wav,guitar,4,6.62485659999948,1,28,53,90,93,77,4,2,2,5.11858747666667,23.1121241133333,5142.8796922,3,NaN,NaN,NaN
28,14,12,AsyncTheta,89,1393_4Hz.avi,synth41_oneeighty_4Hz.wav,synth,1,8.42187680000006,1,28,89,109,54,100,1,1,1,5.11858747666667,23.1121241133333,5151.1297078,3,NaN,NaN,NaN
28,15,12,AsyncTheta,26,1190_4Hz.avi,ep7_oneeighty_4Hz.wav,ep,1,5.48506660000021,1,28,26,101,106,87,1,5,4,5.11858747666667,23.1121241133333,5161.0964066,3,NaN,NaN,NaN
28,16,12,AsyncTheta,53,1197_4Hz.avi,guitar46_oneeighty_4Hz.wav,guitar,1,5.31611390000035,1,28,53,90,93,77,1,3,3,5.11858747666667,23.1121241133333,5168.5631341,3,NaN,NaN,NaN
