ParticipantID,TrialNumber,BlockNumber,Condition,ClipID,VideoFile,SoundFile,SoundCategory,Response,RT,Accuracy,ConditionID,Frame1,Frame2,Frame3,Frame4,CorrectKey,EncodingPosition,Rating,BlockDuration,ExperimentDuration,MemoryTestOnset,RunNumber,Age,Handedness,Sex
10,1,1,SyncTheta,183,1374_4Hz.avi,guitar16_zero_4Hz.wav,guitar,3,6.17585070000041,1,10,112,179,183,146,3,6,5,5.69369917333333,NaN,4218.7360719,1,NaN,NaN,NaN
10,2,1,SyncTheta,163,1441_4Hz.avi,synth27_zero_4Hz.wav,synth,2,4.06337880000046,0,10,163,127,111,184,1,14,5,5.69369917333333,NaN,4228.6527461,1,NaN,NaN,NaN
10,3,1,SyncTheta,184,1052_4Hz.avi,synth40_zero_4Hz.wav,synth,4,5.57485550000001,1,10,127,111,163,184,4,12,2,5.69369917333333,NaN,4235.4193982,1,NaN,NaN,NaN
10,4,1,SyncTheta,179,1186_4Hz.avi,guitar30_zero_4Hz.wav,guitar,4,8.51787429999968,1,10,146,183,112,179,4,8,2,5.69369917333333,NaN,4244.4694016,1,NaN,NaN,NaN
10,5,1,SyncTheta,146,1005_4Hz.avi,guitar14_zero_4Hz.wav,guitar,3,5.22712570000022,0,10,179,146,112,183,2,9,1,5.69369917333333,NaN,4255.6694231,1,NaN,NaN,NaN
10,6,1,SyncTheta,180,1006_4Hz.avi,ep4_zero_4Hz.wav,ep,3,4.14247579999937,0,10,117,132,177,180,4,1,3,5.69369917333333,NaN,4263.5027969,1,NaN,NaN,NaN
10,7,1,SyncTheta,112,1388_4Hz.avi,guitar39_zero_4Hz.wav,guitar,4,3.89906229999997,0,10,146,112,179,183,2,13,4,5.69369917333333,NaN,4270.6194525,1,NaN,NaN,NaN
10,8,1,SyncTheta,120,1365_4Hz.avi,willow21_zero_4Hz.wav,willow,4,5.30156290000014,0,10,120,167,118,171,1,7,1,5.69369917333333,NaN,4277.8028404,1,NaN,NaN,NaN
10,9,1,SyncTheta,127,1411_4Hz.avi,synth28_zero_4Hz.wav,synth,1,3.47692459999962,1,10,127,111,163,184,1,15,3,5.69369917333333,NaN,4286.786167,1,NaN,NaN,NaN
10,10,1,SyncTheta,177,1283_4Hz.avi,ep38_zero_4Hz.wav,ep,4,6.69742240000051,1,10,180,117,132,177,4,4,5,5.69369917333333,NaN,4293.8028411,1,NaN,NaN,NaN
10,11,1,SyncTheta,132,1356_4Hz.avi,ep30_zero_4Hz.wav,ep,2,6.62025510000058,0,10,117,180,132,177,3,5,2,5.69369917333333,NaN,4303.8861615,1,NaN,NaN,NaN
10,12,1,SyncTheta,118,1020_4Hz.avi,willow22_zero_4Hz.wav,willow,4,7.77439670000058,0,10,167,118,171,120,2,11,1,5.69369917333333,NaN,4312.7361807,1,NaN,NaN,NaN
10,13,1,SyncTheta,111,1390_4Hz.avi,synth3_zero_4Hz.wav,synth,1,4.37240889999975,1,10,111,184,127,163,1,2,5,5.69369917333333,NaN,4322.902927,1,NaN,NaN,NaN
10,14,1,SyncTheta,171,1280_4Hz.avi,willow19_zero_4Hz.wav,willow,1,6.61031249999996,0,10,120,171,167,118,2,3,1,5.69369917333333,NaN,4331.0529025,1,NaN,NaN,NaN
10,15,1,SyncTheta,167,1177_4Hz.avi,willow24_zero_4Hz.wav,willow,4,6.41870629999994,0,10,118,171,167,120,3,16,1,5.69369917333333,NaN,4340.0362527,1,NaN,NaN,NaN
10,16,1,SyncTheta,117,1144_4Hz.avi,ep39_zero_4Hz.wav,ep,3,3.91121339999972,0,10,132,180,177,117,4,10,4,5.69369917333333,NaN,4349.1695771,1,NaN,NaN,NaN
10,1,2,SyncDelta,159,1091_1.7Hz.avi,choir8_zero_1.7Hz.wav,choir,3,7.88011430000006,0,10,139,159,121,182,2,4,3,5.04688513333333,NaN,4530.4532347,1,NaN,NaN,NaN
10,2,2,SyncDelta,126,1298_1.7Hz.avi,dar9_zero_1.7Hz.wav,dar,3,4.68859189999966,0,10,126,147,154,191,1,14,5,5.04688513333333,NaN,4541.1198979,1,NaN,NaN,NaN
10,3,2,SyncDelta,191,1314_1.7Hz.avi,dar19_zero_1.7Hz.wav,dar,3,4.30760029999965,1,10,147,126,191,154,3,7,4,5.04688513333333,NaN,4547.9032625,1,NaN,NaN,NaN
10,4,2,SyncDelta,121,1354_1.7Hz.avi,choir22_zero_1.7Hz.wav,choir,2,4.91114560000005,0,10,159,139,182,121,4,9,1,5.04688513333333,NaN,4555.3033343,1,NaN,NaN,NaN
10,5,2,SyncDelta,139,1192_1.7Hz.avi,choir5_zero_1.7Hz.wav,choir,1,3.72732409999935,0,10,159,182,121,139,4,13,1,5.04688513333333,NaN,4562.0199301,1,NaN,NaN,NaN
10,6,2,SyncDelta,133,1341_1.7Hz.avi,acoustic14_zero_1.7Hz.wav,acoustic,1,3.50136139999995,1,10,133,148,190,107,1,5,5,5.04688513333333,NaN,4568.0866241,1,NaN,NaN,NaN
10,7,2,SyncDelta,182,1277_1.7Hz.avi,choir39_zero_1.7Hz.wav,choir,1,3.33427159999974,1,10,182,139,159,121,1,16,5,5.04688513333333,NaN,4574.5366395,1,NaN,NaN,NaN
10,8,2,SyncDelta,165,1410_1.7Hz.avi,orch43_zero_1.7Hz.wav,orch,4,3.91391769999973,0,10,192,165,158,143,2,2,4,5.04688513333333,NaN,4580.1866287,1,NaN,NaN,NaN
10,9,2,SyncDelta,154,1074_1.7Hz.avi,dar5_zero_1.7Hz.wav,dar,2,5.03835330000038,1,10,191,154,147,126,2,15,2,5.04688513333333,NaN,4587.269969,1,NaN,NaN,NaN
10,10,2,SyncDelta,190,1427_1.7Hz.avi,acoustic46_zero_1.7Hz.wav,acoustic,4,5.69655710000006,0,10,133,190,107,148,2,8,4,5.04688513333333,NaN,4595.9866504,1,NaN,NaN,NaN
10,11,2,SyncDelta,107,1265_1.7Hz.avi,acoustic16_zero_1.7Hz.wav,acoustic,3,4.76946939999925,1,10,148,133,107,190,3,10,5,5.04688513333333,NaN,4605.086696,1,NaN,NaN,NaN
10,12,2,SyncDelta,143,1127_1.7Hz.avi,orch11_zero_1.7Hz.wav,orch,3,5.40697699999964,1,10,158,192,143,165,3,6,2,5.04688513333333,NaN,4613.420013,1,NaN,NaN,NaN
10,13,2,SyncDelta,147,1304_1.7Hz.avi,dar10_zero_1.7Hz.wav,dar,1,7.32853469999918,0,10,154,126,147,191,3,3,1,5.04688513333333,NaN,4621.7367233,1,NaN,NaN,NaN
10,14,2,SyncDelta,192,1231_1.7Hz.avi,orch32_zero_1.7Hz.wav,orch,3,6.76719469999989,0,10,143,158,165,192,4,1,5,5.04688513333333,NaN,4632.8700539,1,NaN,NaN,NaN
10,15,2,SyncDelta,158,1206_1.7Hz.avi,orch6_zero_1.7Hz.wav,orch,4,4.90855680000004,0,10,143,165,158,192,3,11,2,5.04688513333333,NaN,4643.2033894,1,NaN,NaN,NaN
10,16,2,SyncDelta,148,1121_1.7Hz.avi,acoustic26_zero_1.7Hz.wav,acoustic,1,4.27488549999998,0,10,133,190,148,107,3,12,3,5.04688513333333,NaN,4651.7200933,1,NaN,NaN,NaN
10,1,3,NoFlicker,53,1197_half_amp.avi,guitar46_half_amp.wav,guitar,2,5.68867169999976,1,10,77,53,84,93,2,5,2,5.04338225,NaN,4823.0537329,1,NaN,NaN,NaN
10,2,3,NoFlicker,89,1393_half_amp.avi,synth41_half_amp.wav,synth,3,7.07798090000051,0,10,95,54,109,89,4,6,1,5.04338225,NaN,4832.2703807,1,NaN,NaN,NaN
10,3,3,NoFlicker,109,1299_half_amp.avi,synth18_half_amp.wav,synth,4,7.61933670000053,0,10,54,89,109,95,3,2,5,5.04338225,NaN,4842.3537595,1,NaN,NaN,NaN
10,4,3,NoFlicker,93,1046_half_amp.avi,guitar18_half_amp.wav,guitar,3,3.81554520000009,1,10,53,77,93,84,3,7,5,5.04338225,NaN,4853.5037729,1,NaN,NaN,NaN
10,5,3,NoFlicker,84,1294_half_amp.avi,guitar6_half_amp.wav,guitar,2,6.30152609999914,0,10,84,77,93,53,1,10,4,5.04338225,NaN,4860.4037635,1,NaN,NaN,NaN
10,6,3,NoFlicker,99,1173_half_amp.avi,ep6_half_amp.wav,ep,3,3.76914919999945,0,10,106,99,87,26,2,3,4,5.04338225,NaN,4870.6871379,1,NaN,NaN,NaN
10,7,3,NoFlicker,77,1008_half_amp.avi,guitar42_half_amp.wav,guitar,1,4.76281349999954,0,10,93,53,77,84,3,11,3,5.04338225,NaN,4878.2704542,1,NaN,NaN,NaN
10,8,3,NoFlicker,75,1040_half_amp.avi,willow17_half_amp.wav,willow,3,3.75954869999987,0,10,92,37,108,75,4,12,4,5.04338225,NaN,4885.1704689,1,NaN,NaN,NaN
10,9,3,NoFlicker,54,1181_half_amp.avi,synth12_half_amp.wav,synth,4,5.13511470000049,0,10,54,109,89,95,1,13,2,5.04338225,NaN,4892.4871452,1,NaN,NaN,NaN
10,10,3,NoFlicker,87,1142_half_amp.avi,ep3_half_amp.wav,ep,1,6.1195646999995,0,10,106,99,87,26,3,4,5,5.04338225,NaN,4899.7371608,1,NaN,NaN,NaN
10,11,3,NoFlicker,26,1190_half_amp.avi,ep7_half_amp.wav,ep,1,7.02788800000053,1,10,26,99,106,87,1,9,3,5.04338225,NaN,4908.3205209,1,NaN,NaN,NaN
10,12,3,NoFlicker,92,1030_half_amp.avi,willow23_half_amp.wav,willow,4,6.86385560000053,0,10,75,108,92,37,3,14,1,5.04338225,NaN,4917.9705164,1,NaN,NaN,NaN
10,13,3,NoFlicker,95,1359_half_amp.avi,synth33_half_amp.wav,synth,2,5.8615805999998,1,10,54,95,109,89,2,1,2,5.04338225,NaN,4928.0705593,1,NaN,NaN,NaN
10,14,3,NoFlicker,37,1237_half_amp.avi,willow15_half_amp.wav,willow,2,7.08291739999913,0,10,108,92,75,37,4,8,4,5.04338225,NaN,4937.1539177,1,NaN,NaN,NaN
10,15,3,NoFlicker,108,1415_half_amp.avi,willow3_half_amp.wav,willow,1,3.6364180999999,1,10,108,37,92,75,1,16,4,5.04338225,NaN,4946.4205983,1,NaN,NaN,NaN
10,16,3,NoFlicker,106,1113_half_amp.avi,ep29_half_amp.wav,ep,1,5.54268090000005,1,10,106,26,99,87,1,15,5,5.04338225,NaN,4953.1539592,1,NaN,NaN,NaN
10,1,4,AsyncTheta,11,1448_4Hz.avi,choir36_oneeighty_4Hz.wav,choir,3,4.91020320000007,0,10,69,68,63,11,4,3,2,5.28322701833333,NaN,5144.0209265,1,NaN,NaN,NaN
10,2,4,AsyncTheta,64,1098_4Hz.avi,dar11_oneeighty_4Hz.wav,dar,4,4.99004940000032,0,10,49,64,56,14,2,8,3,5.28322701833333,NaN,5152.2042745,1,NaN,NaN,NaN
10,3,4,AsyncTheta,56,1063_4Hz.avi,dar16_oneeighty_4Hz.wav,dar,1,5.39143119999972,0,10,14,49,64,56,4,7,4,5.28322701833333,NaN,5159.5709531,1,NaN,NaN,NaN
10,4,4,AsyncTheta,68,1023_4Hz.avi,choir3_oneeighty_4Hz.wav,choir,4,6.87190079999982,1,10,69,11,63,68,4,4,1,5.28322701833333,NaN,5168.8209405,1,NaN,NaN,NaN
10,5,4,AsyncTheta,69,1216_4Hz.avi,choir32_oneeighty_4Hz.wav,choir,1,7.30652860000009,0,10,68,63,11,69,4,9,2,5.28322701833333,NaN,5179.1876551,1,NaN,NaN,NaN
10,6,4,AsyncTheta,47,1292_4Hz.avi,acoustic28_oneeighty_4Hz.wav,acoustic,2,4.84124559999964,0,10,4,58,44,47,4,1,4,5.28322701833333,NaN,5190.554339,1,NaN,NaN,NaN
10,7,4,AsyncTheta,63,1128_4Hz.avi,choir26_oneeighty_4Hz.wav,choir,1,6.66387180000038,0,10,11,68,69,63,4,10,2,5.28322701833333,NaN,5198.9043408,1,NaN,NaN,NaN
10,8,4,AsyncTheta,85,1383_4Hz.avi,orch23_oneeighty_4Hz.wav,orch,3,4.54670530000021,0,10,28,85,81,91,2,14,4,5.28322701833333,NaN,5208.787678,1,NaN,NaN,NaN
10,9,4,AsyncTheta,49,1221_4Hz.avi,dar21_oneeighty_4Hz.wav,dar,2,5.46179779999966,0,10,14,56,64,49,4,13,3,5.28322701833333,NaN,5215.6543465,1,NaN,NaN,NaN
10,10,4,AsyncTheta,58,1323_4Hz.avi,acoustic29_oneeighty_4Hz.wav,acoustic,2,4.91422030000012,0,10,58,44,47,4,1,5,5,5.28322701833333,NaN,5223.6376947,1,NaN,NaN,NaN
10,11,4,AsyncTheta,44,1254_4Hz.avi,acoustic48_oneeighty_4Hz.wav,acoustic,2,3.79612040000029,0,10,44,4,47,58,1,11,5,5.28322701833333,NaN,5231.7377218,1,NaN,NaN,NaN
10,12,4,AsyncTheta,81,1444_4Hz.avi,orch4_oneeighty_4Hz.wav,orch,3,4.19592450000073,1,10,85,91,81,28,3,15,5,5.28322701833333,NaN,5239.4044177,1,NaN,NaN,NaN
10,13,4,AsyncTheta,14,1416_4Hz.avi,dar1_oneeighty_4Hz.wav,dar,1,4.16490220000014,1,10,14,56,64,49,1,2,5,5.28322701833333,NaN,5245.6211172,1,NaN,NaN,NaN
10,14,4,AsyncTheta,28,1148_4Hz.avi,orch19_oneeighty_4Hz.wav,orch,1,5.08816449999995,0,10,85,28,91,81,2,6,3,5.28322701833333,NaN,5253.271126,1,NaN,NaN,NaN
10,15,4,AsyncTheta,91,1340_4Hz.avi,orch46_oneeighty_4Hz.wav,orch,4,7.87648979999994,1,10,81,85,28,91,4,16,4,5.28322701833333,NaN,5260.9711686,1,NaN,NaN,NaN
10,16,4,AsyncTheta,4,1167_4Hz.avi,acoustic37_oneeighty_4Hz.wav,acoustic,4,3.5022756999997,0,10,44,4,47,58,2,12,5,5.28322701833333,NaN,5272.304443,1,NaN,NaN,NaN
10,1,5,NoFlicker,67,1310_half_amp.avi,guitar21_half_amp.wav,guitar,1,4.8623292000002,1,10,67,59,73,15,1,1,5,5.39741811333333,NaN,5558.7881944,2,NaN,NaN,NaN
10,2,5,NoFlicker,70,1093_half_amp.avi,synth6_half_amp.wav,synth,2,4.7559052000006,0,10,70,61,50,71,1,12,3,5.39741811333333,NaN,5567.0715439,2,NaN,NaN,NaN
10,3,5,NoFlicker,50,1049_half_amp.avi,synth43_half_amp.wav,synth,2,7.04068389999975,0,10,70,61,50,71,3,7,1,5.39741811333333,NaN,5574.5381765,2,NaN,NaN,NaN
10,4,5,NoFlicker,59,1346_half_amp.avi,guitar33_half_amp.wav,guitar,4,8.58318429999963,1,10,15,73,67,59,4,4,5,5.39741811333333,NaN,5584.2715746,2,NaN,NaN,NaN
10,5,5,NoFlicker,15,1422_half_amp.avi,guitar37_half_amp.wav,guitar,4,4.39382010000008,0,10,73,67,15,59,3,14,4,5.39741811333333,NaN,5595.2549055,2,NaN,NaN,NaN
10,6,5,NoFlicker,41,1132_half_amp.avi,ep10_half_amp.wav,ep,2,6.24622369999997,0,10,41,24,65,86,1,3,4,5.39741811333333,NaN,5603.271554,2,NaN,NaN,NaN
10,7,5,NoFlicker,73,1369_half_amp.avi,guitar19_half_amp.wav,guitar,3,3.41130639999938,1,10,15,59,73,67,3,16,5,5.39741811333333,NaN,5613.104903,2,NaN,NaN,NaN
10,8,5,NoFlicker,48,1021_half_amp.avi,willow12_half_amp.wav,willow,4,4.37867630000073,0,10,55,27,48,66,3,9,4,5.39741811333333,NaN,5620.0549279,2,NaN,NaN,NaN
10,9,5,NoFlicker,71,1076_half_amp.avi,synth21_half_amp.wav,synth,4,4.57920740000009,0,10,70,50,71,61,3,15,3,5.39741811333333,NaN,5627.3216244,2,NaN,NaN,NaN
10,10,5,NoFlicker,86,1278_half_amp.avi,ep35_half_amp.wav,ep,4,5.86655340000016,1,10,65,24,41,86,4,6,2,5.39741811333333,NaN,5634.9382776,2,NaN,NaN,NaN
10,11,5,NoFlicker,24,1217_half_amp.avi,ep44_half_amp.wav,ep,1,5.50234660000024,0,10,41,65,86,24,4,8,2,5.39741811333333,NaN,5643.0216169,2,NaN,NaN,NaN
10,12,5,NoFlicker,27,1202_half_amp.avi,willow16_half_amp.wav,willow,3,6.18598960000054,1,10,48,66,27,55,3,10,4,5.39741811333333,NaN,5651.9549712,2,NaN,NaN,NaN
10,13,5,NoFlicker,61,1207_half_amp.avi,synth46_half_amp.wav,synth,3,4.85573660000045,0,10,70,71,50,61,4,2,5,5.39741811333333,NaN,5661.2883365,2,NaN,NaN,NaN
10,14,5,NoFlicker,55,1044_half_amp.avi,willow4_half_amp.wav,willow,1,9.23078029999942,1,10,55,66,48,27,1,5,3,5.39741811333333,NaN,5668.5883307,2,NaN,NaN,NaN
10,15,5,NoFlicker,66,1215_half_amp.avi,willow18_half_amp.wav,willow,1,5.21478260000004,0,10,48,27,66,55,3,13,2,5.39741811333333,NaN,5680.9383594,2,NaN,NaN,NaN
10,16,5,NoFlicker,65,1013_half_amp.avi,ep22_half_amp.wav,ep,3,5.64540489999945,0,10,65,86,24,41,1,11,5,5.39741811333333,NaN,5690.1550421,2,NaN,NaN,NaN
10,1,6,AsyncTheta,13,1201_4Hz.avi,choir7_oneeighty_4Hz.wav,choir,1,4.91701710000052,1,10,13,19,72,38,1,3,2,4.93311864833333,NaN,5880.0720377,2,NaN,NaN,NaN
10,2,6,AsyncTheta,34,1319_4Hz.avi,dar22_oneeighty_4Hz.wav,dar,3,5.85851280000043,0,10,31,80,40,34,4,10,5,4.93311864833333,NaN,5888.1553521,2,NaN,NaN,NaN
10,3,6,AsyncTheta,80,1082_4Hz.avi,dar15_oneeighty_4Hz.wav,dar,1,4.42679829999997,0,10,40,31,34,80,4,8,3,4.93311864833333,NaN,5896.2720947,2,NaN,NaN,NaN
10,4,6,AsyncTheta,19,1247_4Hz.avi,choir38_oneeighty_4Hz.wav,choir,4,4.21352690000003,1,10,13,72,38,19,4,4,1,4.93311864833333,NaN,5904.1887558,2,NaN,NaN,NaN
10,5,6,AsyncTheta,38,1184_4Hz.avi,choir33_oneeighty_4Hz.wav,choir,3,3.78022529999998,0,10,13,72,19,38,4,11,2,4.93311864833333,NaN,5910.2387526,2,NaN,NaN,NaN
10,6,6,AsyncTheta,60,1249_4Hz.avi,acoustic20_oneeighty_4Hz.wav,acoustic,4,4.79177720000007,0,10,21,60,20,9,2,2,3,4.93311864833333,NaN,5916.3720985,2,NaN,NaN,NaN
10,7,6,AsyncTheta,72,1097_4Hz.avi,choir29_oneeighty_4Hz.wav,choir,3,5.40271570000004,1,10,19,13,72,38,3,16,3,4.93311864833333,NaN,5923.4387453,2,NaN,NaN,NaN
10,8,6,AsyncTheta,42,1339_4Hz.avi,orch31_oneeighty_4Hz.wav,orch,3,4.10397689999991,0,10,33,102,36,42,4,5,3,4.93311864833333,NaN,5932.4721267,2,NaN,NaN,NaN
10,9,6,AsyncTheta,31,1404_4Hz.avi,dar8_oneeighty_4Hz.wav,dar,3,3.38813960000061,1,10,80,34,31,40,3,13,5,4.93311864833333,NaN,5939.0054659,2,NaN,NaN,NaN
10,10,6,AsyncTheta,20,1236_4Hz.avi,acoustic25_oneeighty_4Hz.wav,acoustic,1,3.41538029999992,0,10,9,60,20,21,3,7,5,4.93311864833333,NaN,5944.7387852,2,NaN,NaN,NaN
10,11,6,AsyncTheta,21,1112_4Hz.avi,acoustic32_oneeighty_4Hz.wav,acoustic,4,4.40333250000003,0,10,9,21,20,60,2,14,2,4.93311864833333,NaN,5950.8721306,2,NaN,NaN,NaN
10,12,6,AsyncTheta,33,1136_4Hz.avi,orch38_oneeighty_4Hz.wav,orch,1,3.89981840000019,1,10,33,36,102,42,1,9,3,4.93311864833333,NaN,5957.6221705,2,NaN,NaN,NaN
10,13,6,AsyncTheta,40,1239_4Hz.avi,dar6_oneeighty_4Hz.wav,dar,4,3.68726370000059,1,10,34,80,31,40,4,6,1,4.93311864833333,NaN,5964.9055099,2,NaN,NaN,NaN
10,14,6,AsyncTheta,36,1284_4Hz.avi,orch29_oneeighty_4Hz.wav,orch,2,3.83057869999993,1,10,42,36,33,102,2,1,2,4.93311864833333,NaN,5972.438831,2,NaN,NaN,NaN
10,15,6,AsyncTheta,102,1012_4Hz.avi,orch18_oneeighty_4Hz.wav,orch,1,5.07925179999984,0,10,42,33,36,102,4,12,5,4.93311864833333,NaN,5979.6389003,2,NaN,NaN,NaN
10,16,6,AsyncTheta,9,1054_4Hz.avi,acoustic44_oneeighty_4Hz.wav,acoustic,2,3.42108619999999,0,10,60,20,9,21,3,15,4,4.93311864833333,NaN,5988.4555495,2,NaN,NaN,NaN
10,1,7,SyncDelta,124,1183_1.7Hz.avi,choir24_zero_1.7Hz.wav,choir,2,7.43338849999964,0,10,88,181,97,124,4,1,2,4.56343099,NaN,6144.9224469,2,NaN,NaN,NaN
10,2,7,SyncDelta,136,1175_1.7Hz.avi,dar4_zero_1.7Hz.wav,dar,4,4.87192529999993,0,10,136,116,187,114,1,13,3,4.56343099,NaN,6154.4391457,2,NaN,NaN,NaN
10,3,7,SyncDelta,116,1420_1.7Hz.avi,dar18_zero_1.7Hz.wav,dar,3,5.35981209999954,1,10,114,187,116,136,3,9,2,4.56343099,NaN,6162.5391421,2,NaN,NaN,NaN
10,4,7,SyncDelta,97,1368_1.7Hz.avi,choir30_zero_1.7Hz.wav,choir,1,3.53895000000011,0,10,181,97,124,88,2,5,4,4.56343099,NaN,6170.8225139,2,NaN,NaN,NaN
10,5,7,SyncDelta,88,1191_1.7Hz.avi,choir20_zero_1.7Hz.wav,choir,1,6.39202430000023,0,10,124,181,97,88,4,8,1,4.56343099,NaN,6176.2891865,2,NaN,NaN,NaN
10,6,7,SyncDelta,175,1103_1.7Hz.avi,acoustic10_zero_1.7Hz.wav,acoustic,4,4.38217500000064,0,10,175,104,96,113,1,3,5,4.56343099,NaN,6186.5558728,2,NaN,NaN,NaN
10,7,7,SyncDelta,181,1168_1.7Hz.avi,choir1_zero_1.7Hz.wav,choir,4,3.32400630000029,1,10,124,88,97,181,4,11,4,4.56343099,NaN,6194.6558574,2,NaN,NaN,NaN
10,8,7,SyncDelta,188,1036_1.7Hz.avi,orch26_zero_1.7Hz.wav,orch,4,3.95706949999931,0,10,145,141,188,137,3,4,2,4.56343099,NaN,6200.939204,2,NaN,NaN,NaN
10,9,7,SyncDelta,187,1164_1.7Hz.avi,dar12_zero_1.7Hz.wav,dar,1,4.14366710000013,1,10,187,136,114,116,1,16,5,4.56343099,NaN,6208.0226035,2,NaN,NaN,NaN
10,10,7,SyncDelta,96,1027_1.7Hz.avi,acoustic40_zero_1.7Hz.wav,acoustic,3,6.67505010000059,0,10,96,175,113,104,1,6,2,4.56343099,NaN,6216.0392279,2,NaN,NaN,NaN
10,11,7,SyncDelta,104,1111_1.7Hz.avi,acoustic31_zero_1.7Hz.wav,acoustic,2,3.76280709999992,1,10,96,104,113,175,2,10,5,4.56343099,NaN,6225.2392579,2,NaN,NaN,NaN
10,12,7,SyncDelta,145,1352_1.7Hz.avi,orch39_zero_1.7Hz.wav,orch,3,4.12545320000027,0,10,188,145,137,141,2,14,4,4.56343099,NaN,6232.2892526,2,NaN,NaN,NaN
10,13,7,SyncDelta,114,1322_1.7Hz.avi,dar14_zero_1.7Hz.wav,dar,1,5.27820810000048,0,10,116,114,187,136,2,7,1,4.56343099,NaN,6238.7892649,2,NaN,NaN,NaN
10,14,7,SyncDelta,137,1303_1.7Hz.avi,orch10_zero_1.7Hz.wav,orch,2,5.3980674000004,1,10,141,137,188,145,2,2,4,4.56343099,NaN,6246.1726171,2,NaN,NaN,NaN
10,15,7,SyncDelta,141,1401_1.7Hz.avi,orch12_zero_1.7Hz.wav,orch,2,4.87803840000015,1,10,188,141,145,137,2,15,3,4.56343099,NaN,6253.4726506,2,NaN,NaN,NaN
10,16,7,SyncDelta,113,1037_1.7Hz.avi,acoustic23_zero_1.7Hz.wav,acoustic,4,4.72882269999991,0,10,113,96,175,104,1,12,4,4.56343099,NaN,6261.0726595,2,NaN,NaN,NaN
10,1,8,SyncTheta,185,1131_4Hz.avi,guitar45_zero_4Hz.wav,guitar,1,7.21645270000045,1,10,185,161,168,170,1,3,4,4.65933440166667,NaN,6414.6895521,2,NaN,NaN,NaN
10,2,8,SyncTheta,186,1031_4Hz.avi,synth7_zero_4Hz.wav,synth,3,6.86514329999954,0,10,140,135,129,186,4,7,2,4.65933440166667,NaN,6424.4062629,2,NaN,NaN,NaN
10,3,8,SyncTheta,140,1270_4Hz.avi,synth17_zero_4Hz.wav,synth,2,3.96668939999927,1,10,135,140,129,186,2,5,3,4.65933440166667,NaN,6434.1062459,2,NaN,NaN,NaN
10,4,8,SyncTheta,170,1062_4Hz.avi,guitar3_zero_4Hz.wav,guitar,4,4.60412879999967,1,10,185,168,161,170,4,6,2,4.65933440166667,NaN,6441.2895974,2,NaN,NaN,NaN
10,5,8,SyncTheta,168,1204_4Hz.avi,guitar36_zero_4Hz.wav,guitar,2,3.40303330000006,1,10,185,168,170,161,2,13,4,4.65933440166667,NaN,6448.7396775,2,NaN,NaN,NaN
10,6,8,SyncTheta,166,1227_4Hz.avi,ep5_zero_4Hz.wav,ep,2,5.99244330000056,0,10,173,144,166,189,3,1,5,4.65933440166667,NaN,6456.2230013,2,NaN,NaN,NaN
10,7,8,SyncTheta,161,1433_4Hz.avi,guitar2_zero_4Hz.wav,guitar,3,5.57027089999974,0,10,161,185,170,168,1,15,3,4.65933440166667,NaN,6466.1396911,2,NaN,NaN,NaN
10,8,8,SyncTheta,149,1200_4Hz.avi,willow8_zero_4Hz.wav,willow,4,6.69205309999961,1,10,178,153,156,149,4,10,3,4.65933440166667,NaN,6475.3063111,2,NaN,NaN,NaN
10,9,8,SyncTheta,135,1154_4Hz.avi,synth38_zero_4Hz.wav,synth,3,4.39200339999934,1,10,140,186,135,129,3,11,2,4.65933440166667,NaN,6484.6563334,2,NaN,NaN,NaN
10,10,8,SyncTheta,173,1348_4Hz.avi,ep31_zero_4Hz.wav,ep,1,4.82543710000027,1,10,173,189,166,144,1,4,5,4.65933440166667,NaN,6492.2230381,2,NaN,NaN,NaN
10,11,8,SyncTheta,189,1051_4Hz.avi,ep14_zero_4Hz.wav,ep,4,4.23703790000036,0,10,189,144,173,166,1,8,1,4.65933440166667,NaN,6500.0896905,2,NaN,NaN,NaN
10,12,8,SyncTheta,153,1157_4Hz.avi,willow1_zero_4Hz.wav,willow,1,3.91590760000054,1,10,153,149,156,178,1,12,5,4.65933440166667,NaN,6506.5563642,2,NaN,NaN,NaN
10,13,8,SyncTheta,129,1286_4Hz.avi,synth30_zero_4Hz.wav,synth,4,3.94782649999979,0,10,140,135,129,186,3,2,5,4.65933440166667,NaN,6514.1897541,2,NaN,NaN,NaN
10,14,8,SyncTheta,156,1060_4Hz.avi,willow7_zero_4Hz.wav,willow,3,7.45029499999964,1,10,153,149,156,178,3,9,4,4.65933440166667,NaN,6521.7064207,2,NaN,NaN,NaN
10,15,8,SyncTheta,178,1057_4Hz.avi,willow9_zero_4Hz.wav,willow,2,5.41809530000046,0,10,149,156,178,153,3,16,4,4.65933440166667,NaN,6532.43975,2,NaN,NaN,NaN
10,16,8,SyncTheta,144,1255_4Hz.avi,ep28_zero_4Hz.wav,ep,3,4.13956229999985,0,10,173,189,166,144,4,14,2,4.65933440166667,NaN,6541.3731301,2,NaN,NaN,NaN
10,1,9,NoFlicker,46,1210_half_amp.avi,guitar48_half_amp.wav,guitar,2,5.62512630000037,0,10,3,7,90,46,4,2,5,6.21540622833333,20.5154967316667,6867.2567891,3,NaN,NaN,NaN
10,2,9,NoFlicker,100,1107_half_amp.avi,synth23_half_amp.wav,synth,2,3.97284039999977,0,10,35,51,100,8,3,8,2,6.21540622833333,20.5154967316667,6875.6235054,3,NaN,NaN,NaN
10,3,9,NoFlicker,35,1039_half_amp.avi,synth5_half_amp.wav,synth,1,5.37456539999948,0,10,100,35,8,51,2,5,3,6.21540622833333,20.5154967316667,6881.8735341,3,NaN,NaN,NaN
10,4,9,NoFlicker,3,1156_half_amp.avi,guitar31_half_amp.wav,guitar,3,3.50588830000015,1,10,46,7,3,90,3,6,5,6.21540622833333,20.5154967316667,6889.5235154,3,NaN,NaN,NaN
10,5,9,NoFlicker,7,1017_half_amp.avi,guitar47_half_amp.wav,guitar,1,6.38671300000078,0,10,90,46,3,7,4,9,4,6.21540622833333,20.5154967316667,6895.7568274,3,NaN,NaN,NaN
10,6,9,NoFlicker,6,1007_half_amp.avi,ep8_half_amp.wav,ep,3,5.77889219999997,1,10,16,25,6,101,3,3,5,6.21540622833333,20.5154967316667,6905.9402081,3,NaN,NaN,NaN
10,7,9,NoFlicker,90,1273_half_amp.avi,guitar23_half_amp.wav,guitar,2,3.56614990000071,0,10,46,3,7,90,4,10,1,6.21540622833333,20.5154967316667,6914.7402907,3,NaN,NaN,NaN
10,8,9,NoFlicker,32,1360_half_amp.avi,willow10_half_amp.wav,willow,1,3.57196640000075,1,10,32,94,22,18,1,7,4,6.21540622833333,20.5154967316667,6921.0235655,3,NaN,NaN,NaN
10,9,9,NoFlicker,8,1252_half_amp.avi,synth25_half_amp.wav,synth,2,4.21203160000005,0,10,8,51,35,100,1,11,5,6.21540622833333,20.5154967316667,6927.406905,3,NaN,NaN,NaN
10,10,9,NoFlicker,101,1295_half_amp.avi,ep40_half_amp.wav,ep,3,6.32619039999918,0,10,101,16,6,25,1,12,5,6.21540622833333,20.5154967316667,6935.6402242,3,NaN,NaN,NaN
10,11,9,NoFlicker,25,1094_half_amp.avi,ep15_half_amp.wav,ep,3,4.30964099999983,0,10,25,16,101,6,1,13,2,6.21540622833333,20.5154967316667,6944.8235686,3,NaN,NaN,NaN
10,12,9,NoFlicker,22,1212_half_amp.avi,willow20_half_amp.wav,willow,1,6.81251880000036,0,10,18,94,22,32,3,14,1,6.21540622833333,20.5154967316667,6952.9736118,3,NaN,NaN,NaN
10,13,9,NoFlicker,51,1331_half_amp.avi,synth47_half_amp.wav,synth,2,4.32676229999925,0,10,35,100,51,8,3,4,2,6.21540622833333,20.5154967316667,6962.3736279,3,NaN,NaN,NaN
10,14,9,NoFlicker,94,1109_half_amp.avi,willow6_half_amp.wav,willow,4,4.1753819000005,0,10,94,22,18,32,1,1,2,6.21540622833333,20.5154967316667,6970.4569771,3,NaN,NaN,NaN
10,15,9,NoFlicker,18,1101_half_amp.avi,willow13_half_amp.wav,willow,4,3.99656530000084,1,10,94,22,32,18,4,16,5,6.21540622833333,20.5154967316667,6976.5903432,3,NaN,NaN,NaN
10,16,9,NoFlicker,16,1442_half_amp.avi,ep34_half_amp.wav,ep,2,3.32702330000029,1,10,101,16,6,25,2,15,2,6.21540622833333,20.5154967316667,6984.5569631,3,NaN,NaN,NaN
10,1,10,SyncDelta,76,1293_1.7Hz.avi,choir23_zero_1.7Hz.wav,choir,2,6.86333339999965,1,10,98,76,78,160,2,2,2,4.60408457833333,20.5154967316667,7140.5572197,3,NaN,NaN,NaN
10,2,10,SyncDelta,103,1084_1.7Hz.avi,dar20_zero_1.7Hz.wav,dar,1,5.31568860000061,1,10,103,162,122,82,1,13,1,4.60408457833333,20.5154967316667,7151.2239057,3,NaN,NaN,NaN
10,3,10,SyncDelta,122,1289_1.7Hz.avi,dar3_zero_1.7Hz.wav,dar,3,3.99615210000047,0,10,122,162,82,103,1,9,4,4.60408457833333,20.5154967316667,7158.2905839,3,NaN,NaN,NaN
10,4,10,SyncDelta,160,1421_1.7Hz.avi,choir13_zero_1.7Hz.wav,choir,2,4.22172119999959,0,10,76,98,78,160,4,4,2,4.60408457833333,20.5154967316667,7166.0072601,3,NaN,NaN,NaN
10,5,10,SyncDelta,78,1301_1.7Hz.avi,choir11_zero_1.7Hz.wav,choir,1,4.75189829999999,1,10,78,98,76,160,1,5,1,4.60408457833333,20.5154967316667,7172.7072749,3,NaN,NaN,NaN
10,6,10,SyncDelta,169,1083_1.7Hz.avi,acoustic43_zero_1.7Hz.wav,acoustic,3,4.43854100000044,0,10,79,105,83,169,4,10,1,4.60408457833333,20.5154967316667,7179.6072779,3,NaN,NaN,NaN
10,7,10,SyncDelta,98,1014_1.7Hz.avi,choir41_zero_1.7Hz.wav,choir,4,5.2713416000006,1,10,76,160,78,98,4,16,2,4.60408457833333,20.5154967316667,7186.2573127,3,NaN,NaN,NaN
10,8,10,SyncDelta,142,1155_1.7Hz.avi,orch9_zero_1.7Hz.wav,orch,2,5.33568859999923,0,10,142,110,174,134,1,3,3,4.60408457833333,20.5154967316667,7195.4573096,3,NaN,NaN,NaN
10,9,10,SyncDelta,162,1358_1.7Hz.avi,dar7_zero_1.7Hz.wav,dar,1,7.24860059999992,1,10,162,122,82,103,1,15,3,4.60408457833333,20.5154967316667,7202.9240163,3,NaN,NaN,NaN
10,10,10,SyncDelta,105,1003_1.7Hz.avi,acoustic6_zero_1.7Hz.wav,acoustic,3,2.95149180000044,1,10,79,83,105,169,3,11,5,4.60408457833333,20.5154967316667,7213.0406678,3,NaN,NaN,NaN
10,11,10,SyncDelta,79,1071_1.7Hz.avi,acoustic17_zero_1.7Hz.wav,acoustic,1,3.36645469999985,0,10,169,79,105,83,2,12,5,4.60408457833333,20.5154967316667,7218.4240668,3,NaN,NaN,NaN
10,12,10,SyncDelta,134,1026_1.7Hz.avi,orch16_zero_1.7Hz.wav,orch,2,8.65615939999952,1,10,142,134,174,110,2,7,5,4.60408457833333,20.5154967316667,7225.6407335,3,NaN,NaN,NaN
10,13,10,SyncDelta,82,1449_1.7Hz.avi,dar17_zero_1.7Hz.wav,dar,1,3.63409709999996,0,10,162,103,122,82,4,6,2,4.60408457833333,20.5154967316667,7238.3073846,3,NaN,NaN,NaN
10,14,10,SyncDelta,110,1443_1.7Hz.avi,orch3_zero_1.7Hz.wav,orch,2,4.51756519999981,1,10,134,110,174,142,2,1,4,4.60408457833333,20.5154967316667,7244.3907505,3,NaN,NaN,NaN
10,15,10,SyncDelta,174,1119_1.7Hz.avi,orch45_zero_1.7Hz.wav,orch,4,3.66172019999976,1,10,110,134,142,174,4,8,2,4.60408457833333,20.5154967316667,7252.4907855,3,NaN,NaN,NaN
10,16,10,SyncDelta,83,1139_1.7Hz.avi,acoustic27_zero_1.7Hz.wav,acoustic,2,4.12370390000069,1,10,169,83,105,79,2,14,5,4.60408457833333,20.5154967316667,7260.140772,3,NaN,NaN,NaN
10,1,11,AsyncTheta,62,1058_4Hz.avi,choir19_oneeighty_4Hz.wav,choir,4,7.45353830000022,1,10,12,52,10,62,4,1,1,4.571896465,20.5154967316667,7412.6910465,3,NaN,NaN,NaN
10,2,11,AsyncTheta,45,1203_4Hz.avi,dar2_oneeighty_4Hz.wav,dar,1,4.9687028999997,0,10,2,45,43,29,2,11,5,4.571896465,20.5154967316667,7422.924369,3,NaN,NaN,NaN
10,3,11,AsyncTheta,43,1141_4Hz.avi,dar13_oneeighty_4Hz.wav,dar,3,3.97594329999993,1,10,2,45,43,29,3,8,2,4.571896465,20.5154967316667,7430.074383,3,NaN,NaN,NaN
10,4,11,AsyncTheta,52,1387_4Hz.avi,choir2_oneeighty_4Hz.wav,choir,4,4.95370840000032,1,10,10,12,62,52,4,5,1,4.571896465,20.5154967316667,7437.4243903,3,NaN,NaN,NaN
10,5,11,AsyncTheta,12,1077_4Hz.avi,choir18_oneeighty_4Hz.wav,choir,2,6.50542630000018,0,10,10,52,12,62,3,9,5,4.571896465,20.5154967316667,7444.6744069,3,NaN,NaN,NaN
10,6,11,AsyncTheta,39,1061_4Hz.avi,acoustic11_oneeighty_4Hz.wav,acoustic,1,3.66316970000025,1,10,39,5,23,1,1,2,2,4.571896465,20.5154967316667,7454.5577243,3,NaN,NaN,NaN
10,7,11,AsyncTheta,10,1179_4Hz.avi,choir4_oneeighty_4Hz.wav,choir,4,3.31819470000028,0,10,52,62,10,12,3,13,3,4.571896465,20.5154967316667,7461.8410691,3,NaN,NaN,NaN
10,8,11,AsyncTheta,57,1309_4Hz.avi,orch7_oneeighty_4Hz.wav,orch,1,6.91870579999977,1,10,57,17,30,74,1,12,5,4.571896465,20.5154967316667,7467.1744159,3,NaN,NaN,NaN
10,9,11,AsyncTheta,2,1431_4Hz.avi,dar24_oneeighty_4Hz.wav,dar,4,4.11215170000014,0,10,2,43,29,45,1,15,3,4.571896465,20.5154967316667,7476.5744255,3,NaN,NaN,NaN
10,10,11,AsyncTheta,5,1381_4Hz.avi,acoustic1_oneeighty_4Hz.wav,acoustic,4,7.56135380000069,0,10,23,39,5,1,3,3,1,4.571896465,20.5154967316667,7484.7744404,3,NaN,NaN,NaN
10,11,11,AsyncTheta,1,1064_4Hz.avi,acoustic12_oneeighty_4Hz.wav,acoustic,1,4.24043739999979,0,10,39,5,1,23,3,4,3,4.571896465,20.5154967316667,7494.8411272,3,NaN,NaN,NaN
10,12,11,AsyncTheta,74,1337_4Hz.avi,orch24_oneeighty_4Hz.wav,orch,1,3.94606499999918,1,10,74,57,30,17,1,14,2,4.571896465,20.5154967316667,7502.5078325,3,NaN,NaN,NaN
10,13,11,AsyncTheta,29,1158_4Hz.avi,dar23_oneeighty_4Hz.wav,dar,4,4.76353639999979,0,10,43,45,29,2,3,7,1,4.571896465,20.5154967316667,7508.6911589,3,NaN,NaN,NaN
10,14,11,AsyncTheta,30,1016_4Hz.avi,orch14_oneeighty_4Hz.wav,orch,4,3.91640639999969,0,10,57,30,74,17,2,6,3,4.571896465,20.5154967316667,7517.2745236,3,NaN,NaN,NaN
10,15,11,AsyncTheta,17,1162_4Hz.avi,orch1_oneeighty_4Hz.wav,orch,3,6.81653459999961,1,10,57,74,17,30,3,16,2,4.571896465,20.5154967316667,7523.8911698,3,NaN,NaN,NaN
10,16,11,AsyncTheta,23,1330_4Hz.avi,acoustic47_oneeighty_4Hz.wav,acoustic,4,4.47257660000014,0,10,1,39,23,5,3,10,5,4.571896465,20.5154967316667,7534.2578843,3,NaN,NaN,NaN
10,1,12,SyncTheta,151,1259_4Hz.avi,guitar43_zero_4Hz.wav,guitar,3,3.80057450000004,0,10,151,164,115,172,1,3,3,4.46825621,20.5154967316667,7681.1914302,3,NaN,NaN,NaN
10,2,12,SyncTheta,155,1042_4Hz.avi,synth10_zero_4Hz.wav,synth,2,3.48190710000017,0,10,155,128,131,125,1,6,1,4.46825621,20.5154967316667,7688.0414673,3,NaN,NaN,NaN
10,3,12,SyncTheta,128,1269_4Hz.avi,synth14_zero_4Hz.wav,synth,1,4.15690760000052,0,10,131,128,125,155,2,4,5,4.46825621,20.5154967316667,7694.7415002,3,NaN,NaN,NaN
10,4,12,SyncTheta,172,1350_4Hz.avi,guitar10_zero_4Hz.wav,guitar,3,8.7344004000006,1,10,164,151,172,115,3,5,4,4.46825621,20.5154967316667,7702.2914893,3,NaN,NaN,NaN
10,5,12,SyncTheta,115,1370_4Hz.avi,guitar9_zero_4Hz.wav,guitar,2,3.65798970000014,0,10,164,172,151,115,4,7,2,4.46825621,20.5154967316667,7712.8414722,3,NaN,NaN,NaN
10,6,12,SyncTheta,138,1149_4Hz.avi,ep2_zero_4Hz.wav,ep,1,3.76478440000028,0,10,150,123,176,138,4,8,4,4.46825621,20.5154967316667,7719.7248172,3,NaN,NaN,NaN
10,7,12,SyncTheta,164,1087_4Hz.avi,guitar17_zero_4Hz.wav,guitar,2,6.20549830000073,1,10,151,164,172,115,2,9,5,4.46825621,20.5154967316667,7727.3748602,3,NaN,NaN,NaN
10,8,12,SyncTheta,130,1081_4Hz.avi,willow5_zero_4Hz.wav,willow,4,3.25356119999924,1,10,152,157,119,130,4,13,5,4.46825621,20.5154967316667,7737.0582184,3,NaN,NaN,NaN
10,9,12,SyncTheta,131,1366_4Hz.avi,synth34_zero_4Hz.wav,synth,2,5.89336569999978,0,10,128,155,131,125,3,12,4,4.46825621,20.5154967316667,7742.3748556,3,NaN,NaN,NaN
10,10,12,SyncTheta,176,1405_4Hz.avi,ep46_zero_4Hz.wav,ep,4,5.14694259999942,0,10,176,123,150,138,1,10,4,4.46825621,20.5154967316667,7752.1749023,3,NaN,NaN,NaN
10,11,12,SyncTheta,150,1394_4Hz.avi,ep11_zero_4Hz.wav,ep,3,7.99531340000067,1,10,123,138,150,176,3,11,2,4.46825621,20.5154967316667,7759.8582147,3,NaN,NaN,NaN
10,12,12,SyncTheta,119,1189_4Hz.avi,willow11_zero_4Hz.wav,willow,4,6.2654265000001,0,10,119,157,152,130,1,15,3,4.46825621,20.5154967316667,7770.1249003,3,NaN,NaN,NaN
10,13,12,SyncTheta,125,1050_4Hz.avi,synth36_zero_4Hz.wav,synth,2,6.4722069999998,0,10,128,155,131,125,4,1,2,4.46825621,20.5154967316667,7779.5749247,3,NaN,NaN,NaN
10,14,12,SyncTheta,152,1445_4Hz.avi,willow2_zero_4Hz.wav,willow,4,4.47616870000002,1,10,157,130,119,152,4,2,2,4.46825621,20.5154967316667,7788.7582654,3,NaN,NaN,NaN
10,15,12,SyncTheta,157,1225_4Hz.avi,willow14_zero_4Hz.wav,willow,3,3.72918879999997,1,10,130,152,157,119,3,16,2,4.46825621,20.5154967316667,7796.3083092,3,NaN,NaN,NaN
10,16,12,SyncTheta,123,1067_4Hz.avi,ep37_zero_4Hz.wav,ep,4,4.11472640000011,1,10,138,150,176,123,4,14,5,4.46825621,20.5154967316667,7802.9249543,3,NaN,NaN,NaN
