ParticipantID,TrialNumber,BlockNumber,Condition,ClipID,VideoFile,SoundFile,SoundCategory,Response,RT,Accuracy,ConditionID,Frame1,Frame2,Frame3,Frame4,CorrectKey,EncodingPosition,Rating,BlockDuration,ExperimentDuration,MemoryTestOnset,RunNumber,Age,Handedness,Sex
32,1,1,SyncDelta,170,1062_1.7Hz.avi,guitar3_zero_1.7Hz.wav,guitar,2,3.85839149999993,1,32,172,170,185,112,2,1,3,5.10827482166667,NaN,8279.1105404,1,NaN,NaN,NaN
32,2,1,SyncDelta,111,1390_1.7Hz.avi,synth3_zero_1.7Hz.wav,synth,3,3.95046800000091,1,32,140,186,111,155,3,2,4,5.10827482166667,NaN,8285.0105799,1,NaN,NaN,NaN
32,3,1,SyncDelta,186,1031_1.7Hz.avi,synth7_zero_1.7Hz.wav,synth,4,9.48915249999845,1,32,111,155,140,186,4,8,5,5.10827482166667,NaN,8292.1605978,1,NaN,NaN,NaN
32,4,1,SyncDelta,178,1057_1.7Hz.avi,willow9_zero_1.7Hz.wav,willow,2,3.32164399999965,1,32,156,178,157,118,2,4,2,5.10827482166667,NaN,8303.2772582,1,NaN,NaN,NaN
32,5,1,SyncDelta,156,1060_1.7Hz.avi,willow7_zero_1.7Hz.wav,willow,1,4.57312939999974,0,32,157,178,118,156,4,12,2,5.10827482166667,NaN,8308.5773107,1,NaN,NaN,NaN
32,6,1,SyncDelta,185,1131_1.7Hz.avi,guitar45_zero_1.7Hz.wav,guitar,2,1.65768320000097,1,32,170,185,112,172,2,3,2,5.10827482166667,NaN,8315.693995,1,NaN,NaN,NaN
32,7,1,SyncDelta,118,1020_1.7Hz.avi,willow22_zero_1.7Hz.wav,willow,3,3.85867990000042,1,32,178,157,118,156,3,5,1,5.10827482166667,NaN,8321.6606452,1,NaN,NaN,NaN
32,8,1,SyncDelta,157,1225_1.7Hz.avi,willow14_zero_1.7Hz.wav,willow,1,4.17683840000063,1,32,157,156,118,178,1,7,4,5.10827482166667,NaN,8328.5939917,1,NaN,NaN,NaN
32,9,1,SyncDelta,176,1405_1.7Hz.avi,ep46_zero_1.7Hz.wav,ep,2,6.97293540000101,0,32,176,117,189,173,1,9,2,5.10827482166667,NaN,8335.9773543,1,NaN,NaN,NaN
32,10,1,SyncDelta,189,1051_1.7Hz.avi,ep14_zero_1.7Hz.wav,ep,1,4.17411460000039,1,32,189,176,173,117,1,11,4,5.10827482166667,NaN,8346.3273693,1,NaN,NaN,NaN
32,11,1,SyncDelta,173,1348_1.7Hz.avi,ep31_zero_1.7Hz.wav,ep,3,3.29705139999896,1,32,117,189,173,176,3,13,2,5.10827482166667,NaN,8353.7107326,1,NaN,NaN,NaN
32,12,1,SyncDelta,155,1042_1.7Hz.avi,synth10_zero_1.7Hz.wav,synth,1,8.37491489999957,0,32,111,155,186,140,2,10,1,5.10827482166667,NaN,8358.6607714,1,NaN,NaN,NaN
32,13,1,SyncDelta,172,1350_1.7Hz.avi,guitar10_zero_1.7Hz.wav,guitar,2,2.77708060000077,0,32,172,185,112,170,1,16,1,5.10827482166667,NaN,8370.3608025,1,NaN,NaN,NaN
32,14,1,SyncDelta,117,1144_1.7Hz.avi,ep39_zero_1.7Hz.wav,ep,2,3.96351529999993,1,32,176,117,189,173,2,14,1,5.10827482166667,NaN,8376.7274927,1,NaN,NaN,NaN
32,15,1,SyncDelta,112,1388_1.7Hz.avi,guitar39_zero_1.7Hz.wav,guitar,3,4.5627072999996,1,32,170,185,112,172,3,15,2,5.10827482166667,NaN,8382.1608073,1,NaN,NaN,NaN
32,16,1,SyncDelta,140,1270_1.7Hz.avi,synth17_zero_1.7Hz.wav,synth,1,6.19175679999898,1,32,140,155,111,186,1,6,5,5.10827482166667,NaN,8388.4274853,1,NaN,NaN,NaN
32,1,2,AsyncTheta,93,1046_4Hz.avi,guitar18_oneeighty_4Hz.wav,guitar,1,5.18080999999984,0,32,77,93,73,7,2,4,1,5.06752433,NaN,8579.2613415,1,NaN,NaN,NaN
32,2,2,AsyncTheta,71,1076_4Hz.avi,synth21_oneeighty_4Hz.wav,synth,4,6.03376850000132,0,32,89,109,71,35,3,1,4,5.06752433,NaN,8586.5780647,1,NaN,NaN,NaN
32,3,2,AsyncTheta,35,1039_4Hz.avi,synth5_oneeighty_4Hz.wav,synth,1,7.60893270000088,1,32,35,109,89,71,1,11,4,5.06752433,NaN,8595.8780658,1,NaN,NaN,NaN
32,4,2,AsyncTheta,66,1215_4Hz.avi,willow18_oneeighty_4Hz.wav,willow,1,5.22345730000052,0,32,108,66,22,75,2,6,2,5.06752433,NaN,8604.8780796,1,NaN,NaN,NaN
32,5,2,AsyncTheta,75,1040_4Hz.avi,willow17_oneeighty_4Hz.wav,willow,2,3.35303500000009,1,32,22,75,66,108,2,15,5,5.06752433,NaN,8611.9447921,1,NaN,NaN,NaN
32,6,2,AsyncTheta,77,1008_4Hz.avi,guitar42_oneeighty_4Hz.wav,guitar,2,2.57592070000101,1,32,73,77,7,93,2,8,4,5.06752433,NaN,8618.2281116,1,NaN,NaN,NaN
32,7,2,AsyncTheta,108,1415_4Hz.avi,willow3_oneeighty_4Hz.wav,willow,1,4.87386259999948,0,32,22,108,66,75,2,7,1,5.06752433,NaN,8623.6281308,1,NaN,NaN,NaN
32,8,2,AsyncTheta,22,1212_4Hz.avi,willow20_oneeighty_4Hz.wav,willow,3,5.73042720000012,1,32,66,108,22,75,3,10,2,5.06752433,NaN,8631.044813,1,NaN,NaN,NaN
32,9,2,AsyncTheta,16,1442_4Hz.avi,ep34_oneeighty_4Hz.wav,ep,2,8.03533460000108,0,32,86,106,87,16,4,2,2,5.06752433,NaN,8639.9281755,1,NaN,NaN,NaN
32,10,2,AsyncTheta,86,1278_4Hz.avi,ep35_oneeighty_4Hz.wav,ep,1,3.59905460000118,0,32,87,86,16,106,2,3,2,5.06752433,NaN,8650.0782434,1,NaN,NaN,NaN
32,11,2,AsyncTheta,87,1142_4Hz.avi,ep3_oneeighty_4Hz.wav,ep,4,6.13720119999925,0,32,106,87,16,86,2,9,5,5.06752433,NaN,8655.0615533,1,NaN,NaN,NaN
32,12,2,AsyncTheta,109,1299_4Hz.avi,synth18_oneeighty_4Hz.wav,synth,3,5.58897470000011,1,32,71,89,109,35,3,13,4,5.06752433,NaN,8663.1449372,1,NaN,NaN,NaN
32,13,2,AsyncTheta,73,1369_4Hz.avi,guitar19_oneeighty_4Hz.wav,guitar,1,4.14714269999968,0,32,7,93,73,77,3,14,2,5.06752433,NaN,8671.7616007,1,NaN,NaN,NaN
32,14,2,AsyncTheta,106,1113_4Hz.avi,ep29_oneeighty_4Hz.wav,ep,4,5.32547169999998,0,32,106,87,16,86,1,16,2,5.06752433,NaN,8677.8116123,1,NaN,NaN,NaN
32,15,2,AsyncTheta,7,1017_4Hz.avi,guitar47_oneeighty_4Hz.wav,guitar,4,3.75236610000138,0,32,7,77,93,73,1,12,2,5.06752433,NaN,8685.711634,1,NaN,NaN,NaN
32,16,2,AsyncTheta,89,1393_4Hz.avi,synth41_oneeighty_4Hz.wav,synth,2,7.42951370000083,1,32,109,89,71,35,2,5,4,5.06752433,NaN,8691.3783477,1,NaN,NaN,NaN
32,1,3,SyncTheta,124,1183_4Hz.avi,choir24_zero_4Hz.wav,choir,3,4.07481689999986,0,32,124,76,98,181,1,4,1,4.44460015,NaN,8847.4121202,1,NaN,NaN,NaN
32,2,3,SyncTheta,136,1175_4Hz.avi,dar4_zero_4Hz.wav,dar,2,6.77641949999997,1,32,82,136,187,122,2,3,4,4.44460015,NaN,8853.945436,1,NaN,NaN,NaN
32,3,3,SyncTheta,122,1289_4Hz.avi,dar3_zero_4Hz.wav,dar,1,5.33202309999979,0,32,82,136,122,187,3,7,3,4.44460015,NaN,8862.6454605,1,NaN,NaN,NaN
32,4,3,SyncTheta,188,1036_4Hz.avi,orch26_zero_4Hz.wav,orch,4,6.46004680000078,1,32,142,110,145,188,4,6,4,4.44460015,NaN,8871.2288159,1,NaN,NaN,NaN
32,5,3,SyncTheta,142,1155_4Hz.avi,orch9_zero_4Hz.wav,orch,2,5.68367949999993,1,32,188,142,145,110,2,10,2,4.44460015,NaN,8880.6121776,1,NaN,NaN,NaN
32,6,3,SyncTheta,98,1014_4Hz.avi,choir41_zero_4Hz.wav,choir,3,8.87273920000007,0,32,98,76,181,124,1,12,5,4.44460015,NaN,8889.095529,1,NaN,NaN,NaN
32,7,3,SyncTheta,110,1443_4Hz.avi,orch3_zero_4Hz.wav,orch,3,4.65331180000067,1,32,145,188,110,142,3,8,5,4.44460015,NaN,8900.2455688,1,NaN,NaN,NaN
32,8,3,SyncTheta,145,1352_4Hz.avi,orch39_zero_4Hz.wav,orch,2,3.32830329999888,1,32,110,145,142,188,2,9,5,4.44460015,NaN,8906.3122786,1,NaN,NaN,NaN
32,9,3,SyncTheta,175,1103_4Hz.avi,acoustic10_zero_4Hz.wav,acoustic,2,4.67962810000063,0,32,105,113,175,79,3,1,5,4.44460015,NaN,8911.5955948,1,NaN,NaN,NaN
32,10,3,SyncTheta,79,1071_4Hz.avi,acoustic17_zero_4Hz.wav,acoustic,3,7.55673440000101,0,32,175,113,105,79,4,2,5,4.44460015,NaN,8919.4289818,1,NaN,NaN,NaN
32,11,3,SyncTheta,113,1037_4Hz.avi,acoustic23_zero_4Hz.wav,acoustic,2,4.72619769999983,1,32,175,113,79,105,2,11,2,4.44460015,NaN,8928.4789742,1,NaN,NaN,NaN
32,12,3,SyncTheta,187,1164_4Hz.avi,dar12_zero_4Hz.wav,dar,4,3.27108880000014,1,32,122,136,82,187,4,14,2,4.44460015,NaN,8934.6123274,1,NaN,NaN,NaN
32,13,3,SyncTheta,181,1168_4Hz.avi,choir1_zero_4Hz.wav,choir,3,3.08437969999977,1,32,98,124,181,76,3,16,5,4.44460015,NaN,8940.545674,1,NaN,NaN,NaN
32,14,3,SyncTheta,105,1003_4Hz.avi,acoustic6_zero_4Hz.wav,acoustic,1,2.50615749999997,0,32,79,105,175,113,2,13,1,4.44460015,NaN,8945.5623592,1,NaN,NaN,NaN
32,15,3,SyncTheta,76,1293_4Hz.avi,choir23_zero_4Hz.wav,choir,3,5.83895839999968,1,32,124,98,76,181,3,15,1,4.44460015,NaN,8949.995698,1,NaN,NaN,NaN
32,16,3,SyncTheta,82,1449_4Hz.avi,dar17_zero_4Hz.wav,dar,2,6.58984390000114,0,32,136,122,82,187,3,5,3,4.44460015,NaN,8958.9623918,1,NaN,NaN,NaN
32,1,4,NoFlicker,52,1387_half_amp.avi,choir2_half_amp.wav,choir,1,5.84651040000062,0,32,68,11,72,52,4,11,1,4.29864042666667,NaN,9109.779514,1,NaN,NaN,NaN
32,2,4,NoFlicker,43,1141_half_amp.avi,dar13_half_amp.wav,dar,1,4.7631352999997,1,32,43,80,56,14,1,1,4,4.29864042666667,NaN,9118.3128683,1,NaN,NaN,NaN
32,3,4,NoFlicker,14,1416_half_amp.avi,dar1_half_amp.wav,dar,2,3.38963839999997,0,32,43,56,80,14,4,7,1,4.29864042666667,NaN,9125.6961852,1,NaN,NaN,NaN
32,4,4,NoFlicker,85,1383_half_amp.avi,orch23_half_amp.wav,orch,3,2.552470300001,1,32,102,57,85,28,3,6,4,4.29864042666667,NaN,9131.8628779,1,NaN,NaN,NaN
32,5,4,NoFlicker,102,1012_half_amp.avi,orch18_half_amp.wav,orch,2,4.45732390000012,1,32,28,102,85,57,2,13,5,4.29864042666667,NaN,9137.6462161,1,NaN,NaN,NaN
32,6,4,NoFlicker,72,1097_half_amp.avi,choir29_half_amp.wav,choir,4,4.81609019999996,1,32,11,52,68,72,4,12,5,4.29864042666667,NaN,9144.0795702,1,NaN,NaN,NaN
32,7,4,NoFlicker,57,1309_half_amp.avi,orch7_half_amp.wav,orch,4,7.21354430000065,0,32,85,57,28,102,2,9,5,4.29864042666667,NaN,9151.4796224,1,NaN,NaN,NaN
32,8,4,NoFlicker,28,1148_half_amp.avi,orch19_half_amp.wav,orch,4,3.97738629999913,1,32,85,57,102,28,4,10,1,4.29864042666667,NaN,9161.4963179,1,NaN,NaN,NaN
32,9,4,NoFlicker,23,1330_half_amp.avi,acoustic47_half_amp.wav,acoustic,3,4.22702120000031,0,32,4,23,47,60,2,2,2,4.29864042666667,NaN,9168.4796505,1,NaN,NaN,NaN
32,10,4,NoFlicker,4,1167_half_amp.avi,acoustic37_half_amp.wav,acoustic,2,2.77313950000098,1,32,23,4,47,60,2,3,4,4.29864042666667,NaN,9174.5463551,1,NaN,NaN,NaN
32,11,4,NoFlicker,60,1249_half_amp.avi,acoustic20_half_amp.wav,acoustic,1,2.97829719999936,1,32,60,4,47,23,1,5,2,4.29864042666667,NaN,9180.696368,1,NaN,NaN,NaN
32,12,4,NoFlicker,56,1063_half_amp.avi,dar16_half_amp.wav,dar,3,8.41554329999963,0,32,56,80,14,43,1,14,1,4.29864042666667,NaN,9185.4130188,1,NaN,NaN,NaN
32,13,4,NoFlicker,11,1448_half_amp.avi,choir36_half_amp.wav,choir,2,7.1322712000001,0,32,68,52,72,11,4,16,5,4.29864042666667,NaN,9195.7631311,1,NaN,NaN,NaN
32,14,4,NoFlicker,47,1292_half_amp.avi,acoustic28_half_amp.wav,acoustic,1,2.5358770999992,0,32,23,4,60,47,4,8,1,4.29864042666667,NaN,9205.8631081,1,NaN,NaN,NaN
32,15,4,NoFlicker,68,1023_half_amp.avi,choir3_half_amp.wav,choir,1,4.42057280000154,1,32,68,11,52,72,1,15,1,4.29864042666667,NaN,9210.7964571,1,NaN,NaN,NaN
32,16,4,NoFlicker,80,1082_half_amp.avi,dar15_half_amp.wav,dar,4,5.58436659999825,0,32,14,80,56,43,2,4,1,4.29864042666667,NaN,9217.9631442,1,NaN,NaN,NaN
32,1,5,NoFlicker,12,1077_half_amp.avi,choir18_half_amp.wav,choir,2,7.64312290000089,1,32,63,12,19,38,2,9,2,4.62305642666667,NaN,9461.8471025,2,NaN,NaN,NaN
32,2,5,NoFlicker,40,1239_half_amp.avi,dar6_half_amp.wav,dar,2,3.66250079999918,1,32,29,40,49,34,2,6,4,4.62305642666667,NaN,9471.2137605,2,NaN,NaN,NaN
32,3,5,NoFlicker,34,1319_half_amp.avi,dar22_half_amp.wav,dar,4,2.64385279999988,1,32,40,49,29,34,4,13,2,4.62305642666667,NaN,9476.4637767,2,NaN,NaN,NaN
32,4,5,NoFlicker,36,1284_half_amp.avi,orch29_half_amp.wav,orch,3,2.65444070000012,1,32,30,81,36,42,3,3,4,4.62305642666667,NaN,9481.197118,2,NaN,NaN,NaN
32,5,5,NoFlicker,42,1339_half_amp.avi,orch31_half_amp.wav,orch,1,1.38663610000003,1,32,42,36,30,81,1,10,1,4.62305642666667,NaN,9487.2638336,2,NaN,NaN,NaN
32,6,5,NoFlicker,38,1184_half_amp.avi,choir33_half_amp.wav,choir,2,6.12543010000081,1,32,12,38,19,63,2,12,1,4.62305642666667,NaN,9492.7304852,2,NaN,NaN,NaN
32,7,5,NoFlicker,81,1444_half_amp.avi,orch4_half_amp.wav,orch,2,1.94021750000138,1,32,30,81,36,42,2,5,5,4.62305642666667,NaN,9501.5638735,2,NaN,NaN,NaN
32,8,5,NoFlicker,30,1016_half_amp.avi,orch14_half_amp.wav,orch,4,3.25019179999981,1,32,36,81,42,30,4,7,2,4.62305642666667,NaN,9507.5805285,2,NaN,NaN,NaN
32,9,5,NoFlicker,5,1381_half_amp.avi,acoustic1_half_amp.wav,acoustic,1,3.77109420000124,0,32,20,5,21,44,2,1,1,4.62305642666667,NaN,9514.1972412,2,NaN,NaN,NaN
32,10,5,NoFlicker,20,1236_half_amp.avi,acoustic25_half_amp.wav,acoustic,4,3.4230062000006,1,32,5,21,44,20,4,2,5,4.62305642666667,NaN,9519.3805542,2,NaN,NaN,NaN
32,11,5,NoFlicker,44,1254_half_amp.avi,acoustic48_half_amp.wav,acoustic,3,4.59144209999977,0,32,21,20,5,44,4,4,5,4.62305642666667,NaN,9525.8805737,2,NaN,NaN,NaN
32,12,5,NoFlicker,49,1221_half_amp.avi,dar21_half_amp.wav,dar,1,5.43704319999961,0,32,29,49,34,40,2,16,1,4.62305642666667,NaN,9531.9805871,2,NaN,NaN,NaN
32,13,5,NoFlicker,63,1128_half_amp.avi,choir26_half_amp.wav,choir,1,6.80738460000066,1,32,63,38,12,19,1,15,1,4.62305642666667,NaN,9540.7639793,2,NaN,NaN,NaN
32,14,5,NoFlicker,21,1112_half_amp.avi,acoustic32_half_amp.wav,acoustic,1,3.06542170000102,1,32,21,44,5,20,1,11,1,4.62305642666667,NaN,9549.9473054,2,NaN,NaN,NaN
32,15,5,NoFlicker,19,1247_half_amp.avi,choir38_half_amp.wav,choir,4,3.78093290000106,1,32,12,63,38,19,4,14,2,4.62305642666667,NaN,9554.9139898,2,NaN,NaN,NaN
32,16,5,NoFlicker,29,1158_half_amp.avi,dar23_half_amp.wav,dar,1,3.24346279999918,0,32,49,34,29,40,3,8,4,4.62305642666667,NaN,9561.3973692,2,NaN,NaN,NaN
32,1,6,SyncTheta,97,1368_4Hz.avi,choir30_zero_4Hz.wav,choir,1,5.66282000000137,1,32,97,78,121,160,1,12,5,4.23240932333333,NaN,9710.4310837,2,NaN,NaN,NaN
32,2,6,SyncTheta,162,1358_4Hz.avi,dar7_zero_4Hz.wav,dar,2,7.20026329999928,1,32,103,162,116,126,2,7,4,4.23240932333333,NaN,9717.464435,2,NaN,NaN,NaN
32,3,6,SyncTheta,126,1298_4Hz.avi,dar9_zero_4Hz.wav,dar,3,6.85696420000022,0,32,116,126,103,162,2,9,1,4.23240932333333,NaN,9727.7478322,2,NaN,NaN,NaN
32,4,6,SyncTheta,174,1119_4Hz.avi,orch45_zero_4Hz.wav,orch,1,5.31751959999929,0,32,143,174,134,141,2,2,2,4.23240932333333,NaN,9736.497856,2,NaN,NaN,NaN
32,5,6,SyncTheta,143,1127_4Hz.avi,orch11_zero_4Hz.wav,orch,2,3.83520080000017,0,32,174,141,134,143,4,11,2,4.23240932333333,NaN,9744.0645439,2,NaN,NaN,NaN
32,6,6,SyncTheta,160,1421_4Hz.avi,choir13_zero_4Hz.wav,choir,1,3.36263280000094,0,32,97,78,160,121,3,13,4,4.23240932333333,NaN,9749.3311946,2,NaN,NaN,NaN
32,7,6,SyncTheta,134,1026_4Hz.avi,orch16_zero_4Hz.wav,orch,2,5.5806481999989,1,32,143,134,141,174,2,4,4,4.23240932333333,NaN,9755.0478753,2,NaN,NaN,NaN
32,8,6,SyncTheta,141,1401_4Hz.avi,orch12_zero_4Hz.wav,orch,1,4.78331919999982,0,32,174,134,141,143,3,5,2,4.23240932333333,NaN,9762.2812258,2,NaN,NaN,NaN
32,9,6,SyncTheta,169,1083_4Hz.avi,acoustic43_zero_4Hz.wav,acoustic,4,6.32185240000035,0,32,107,169,104,83,2,1,2,4.23240932333333,NaN,9770.1646141,2,NaN,NaN,NaN
32,10,6,SyncTheta,104,1111_4Hz.avi,acoustic31_zero_4Hz.wav,acoustic,4,4.98891519999961,0,32,169,83,104,107,3,3,2,4.23240932333333,NaN,9779.2146116,2,NaN,NaN,NaN
32,11,6,SyncTheta,107,1265_4Hz.avi,acoustic16_zero_4Hz.wav,acoustic,3,4.19481839999935,0,32,107,83,104,169,1,6,1,4.23240932333333,NaN,9786.5979623,2,NaN,NaN,NaN
32,12,6,SyncTheta,103,1084_4Hz.avi,dar20_zero_4Hz.wav,dar,1,3.21183130000099,0,32,162,126,116,103,4,10,4,4.23240932333333,NaN,9792.9813172,2,NaN,NaN,NaN
32,13,6,SyncTheta,121,1354_4Hz.avi,choir22_zero_4Hz.wav,choir,3,4.22533560000011,0,32,160,97,78,121,4,16,1,4.23240932333333,NaN,9798.2479952,2,NaN,NaN,NaN
32,14,6,SyncTheta,83,1139_4Hz.avi,acoustic27_zero_4Hz.wav,acoustic,4,2.61062870000023,0,32,107,104,83,169,3,15,1,4.23240932333333,NaN,9805.1813482,2,NaN,NaN,NaN
32,15,6,SyncTheta,78,1301_4Hz.avi,choir11_zero_4Hz.wav,choir,4,3.29149200000029,0,32,78,160,97,121,1,14,5,4.23240932333333,NaN,9809.7813622,2,NaN,NaN,NaN
32,16,6,SyncTheta,116,1420_4Hz.avi,dar18_zero_4Hz.wav,dar,4,3.00749879999967,1,32,162,103,126,116,4,8,1,4.23240932333333,NaN,9815.6480436,2,NaN,NaN,NaN
32,1,7,AsyncTheta,15,1422_4Hz.avi,guitar37_oneeighty_4Hz.wav,guitar,4,7.7573500999988,0,32,67,46,15,84,3,3,2,4.32089387833333,NaN,9964.6984659,2,NaN,NaN,NaN
32,2,7,AsyncTheta,50,1049_4Hz.avi,synth43_oneeighty_4Hz.wav,synth,1,6.46626939999987,1,32,50,70,51,95,1,1,1,4.32089387833333,NaN,9973.9651582,2,NaN,NaN,NaN
32,3,7,AsyncTheta,70,1093_4Hz.avi,synth6_oneeighty_4Hz.wav,synth,1,2.78123660000165,1,32,70,50,51,95,1,8,5,4.32089387833333,NaN,9982.1818438,2,NaN,NaN,NaN
32,4,7,AsyncTheta,92,1030_4Hz.avi,willow23_oneeighty_4Hz.wav,willow,1,9.26922430000013,1,32,92,32,27,55,1,2,1,4.32089387833333,NaN,9987.065191,2,NaN,NaN,NaN
32,5,7,AsyncTheta,32,1360_4Hz.avi,willow10_oneeighty_4Hz.wav,willow,2,5.32621539999855,1,32,55,32,27,92,2,16,1,4.32089387833333,NaN,9998.2985511,2,NaN,NaN,NaN
32,6,7,AsyncTheta,84,1294_4Hz.avi,guitar6_oneeighty_4Hz.wav,guitar,1,5.45291100000031,0,32,67,15,46,84,4,6,4,4.32089387833333,NaN,10006.6485723,2,NaN,NaN,NaN
32,7,7,AsyncTheta,55,1044_4Hz.avi,willow4_oneeighty_4Hz.wav,willow,3,4.63671629999953,1,32,27,32,55,92,3,4,4,4.32089387833333,NaN,10013.5319194,2,NaN,NaN,NaN
32,8,7,AsyncTheta,27,1202_4Hz.avi,willow16_oneeighty_4Hz.wav,willow,2,3.55632770000011,0,32,92,32,55,27,4,10,4,4.32089387833333,NaN,10020.1486435,2,NaN,NaN,NaN
32,9,7,AsyncTheta,24,1217_4Hz.avi,ep44_oneeighty_4Hz.wav,ep,3,2.43783630000144,1,32,99,65,24,25,3,7,5,4.32089387833333,NaN,10025.8819598,2,NaN,NaN,NaN
32,10,7,AsyncTheta,65,1013_4Hz.avi,ep22_oneeighty_4Hz.wav,ep,1,6.31152490000022,0,32,25,99,24,65,4,9,1,4.32089387833333,NaN,10030.9319786,2,NaN,NaN,NaN
32,11,7,AsyncTheta,25,1094_4Hz.avi,ep15_oneeighty_4Hz.wav,ep,3,3.99966739999945,0,32,24,25,65,99,2,11,1,4.32089387833333,NaN,10038.6319958,2,NaN,NaN,NaN
32,12,7,AsyncTheta,51,1331_4Hz.avi,synth47_oneeighty_4Hz.wav,synth,2,6.67823549999957,0,32,70,95,51,50,3,12,2,4.32089387833333,NaN,10045.1486876,2,NaN,NaN,NaN
32,13,7,AsyncTheta,67,1310_4Hz.avi,guitar21_oneeighty_4Hz.wav,guitar,4,4.98912030000065,0,32,67,84,46,15,1,15,2,4.32089387833333,NaN,10053.7153712,2,NaN,NaN,NaN
32,14,7,AsyncTheta,99,1173_4Hz.avi,ep6_oneeighty_4Hz.wav,ep,3,3.95289619999858,1,32,65,24,99,25,3,14,4,4.32089387833333,NaN,10060.2153878,2,NaN,NaN,NaN
32,15,7,AsyncTheta,46,1210_4Hz.avi,guitar48_oneeighty_4Hz.wav,guitar,2,3.8906377000003,1,32,15,46,84,67,2,13,1,4.32089387833333,NaN,10066.8487444,2,NaN,NaN,NaN
32,16,7,AsyncTheta,95,1359_4Hz.avi,synth33_oneeighty_4Hz.wav,synth,3,5.17432560000088,0,32,51,70,50,95,4,5,1,4.32089387833333,NaN,10072.8654574,2,NaN,NaN,NaN
32,1,8,SyncDelta,179,1186_1.7Hz.avi,guitar30_zero_1.7Hz.wav,guitar,1,5.15241479999895,1,32,179,151,183,168,1,1,5,4.13012462,NaN,10226.1491824,2,NaN,NaN,NaN
32,2,8,SyncDelta,184,1052_1.7Hz.avi,synth40_zero_1.7Hz.wav,synth,2,7.72030500000074,0,32,184,163,135,128,1,4,1,4.13012462,NaN,10233.7659114,2,NaN,NaN,NaN
32,3,8,SyncDelta,135,1154_1.7Hz.avi,synth38_zero_1.7Hz.wav,synth,4,2.56275740000092,1,32,163,184,128,135,4,15,5,4.13012462,NaN,10244.2992354,2,NaN,NaN,NaN
32,4,8,SyncDelta,167,1177_1.7Hz.avi,willow24_zero_1.7Hz.wav,willow,1,4.10529180000049,0,32,171,130,153,167,4,2,1,4.13012462,NaN,10249.2826229,2,NaN,NaN,NaN
32,5,8,SyncDelta,130,1081_1.7Hz.avi,willow5_zero_1.7Hz.wav,willow,3,2.7985592999994,1,32,167,171,130,153,3,13,4,4.13012462,NaN,10254.7992747,2,NaN,NaN,NaN
32,6,8,SyncDelta,183,1374_1.7Hz.avi,guitar16_zero_1.7Hz.wav,guitar,4,2.78214380000099,1,32,151,168,179,183,4,7,1,4.13012462,NaN,10259.182646,2,NaN,NaN,NaN
32,7,8,SyncDelta,171,1280_1.7Hz.avi,willow19_zero_1.7Hz.wav,willow,1,3.2845580000012,0,32,153,130,167,171,4,5,1,4.13012462,NaN,10263.9326231,2,NaN,NaN,NaN
32,8,8,SyncDelta,153,1157_1.7Hz.avi,willow1_zero_1.7Hz.wav,willow,3,2.71885680000014,1,32,130,171,153,167,3,9,5,4.13012462,NaN,10269.3826359,2,NaN,NaN,NaN
32,9,8,SyncDelta,180,1006_1.7Hz.avi,ep4_zero_1.7Hz.wav,ep,2,4.94247949999954,0,32,166,177,138,180,4,3,1,4.13012462,NaN,10274.5326812,2,NaN,NaN,NaN
32,10,8,SyncDelta,177,1283_1.7Hz.avi,ep38_zero_1.7Hz.wav,ep,4,6.6048320000009,1,32,138,166,180,177,4,6,4,4.13012462,NaN,10282.4827101,2,NaN,NaN,NaN
32,11,8,SyncDelta,166,1227_1.7Hz.avi,ep5_zero_1.7Hz.wav,ep,3,3.58965869999884,1,32,138,180,166,177,3,10,2,4.13012462,NaN,10291.7494005,2,NaN,NaN,NaN
32,12,8,SyncDelta,128,1269_1.7Hz.avi,synth14_zero_1.7Hz.wav,synth,3,5.05769280000095,0,32,128,163,184,135,1,16,2,4.13012462,NaN,10298.6660597,2,NaN,NaN,NaN
32,13,8,SyncDelta,151,1259_1.7Hz.avi,guitar43_zero_1.7Hz.wav,guitar,4,4.30129629999828,1,32,183,179,168,151,4,11,1,4.13012462,NaN,10305.0827485,2,NaN,NaN,NaN
32,14,8,SyncDelta,138,1149_1.7Hz.avi,ep2_zero_1.7Hz.wav,ep,3,2.98637519999829,1,32,177,180,138,166,3,14,5,4.13012462,NaN,10310.8494234,2,NaN,NaN,NaN
32,15,8,SyncDelta,168,1204_1.7Hz.avi,guitar36_zero_1.7Hz.wav,guitar,2,4.90578520000054,1,32,151,168,183,179,2,8,4,4.13012462,NaN,10316.2161063,2,NaN,NaN,NaN
32,16,8,SyncDelta,163,1441_1.7Hz.avi,synth27_zero_1.7Hz.wav,synth,2,3.45037950000005,0,32,184,128,163,135,3,12,1,4.13012462,NaN,10322.4994537,2,NaN,NaN,NaN
32,1,9,SyncTheta,159,1091_4Hz.avi,choir8_zero_4Hz.wav,choir,3,10.3940206999996,0,32,139,182,88,159,4,5,2,4.925092565,18.8776096166667,10571.583459,3,NaN,NaN,NaN
32,2,9,SyncTheta,114,1322_4Hz.avi,dar14_zero_4Hz.wav,dar,2,6.04415449999942,0,32,147,191,154,114,4,2,1,4.925092565,18.8776096166667,10584.3001229,3,NaN,NaN,NaN
32,3,9,SyncTheta,154,1074_4Hz.avi,dar5_zero_4Hz.wav,dar,1,2.16965150000033,1,32,154,147,114,191,1,13,4,4.925092565,18.8776096166667,10591.8001554,3,NaN,NaN,NaN
32,4,9,SyncTheta,192,1231_4Hz.avi,orch32_zero_4Hz.wav,orch,2,6.75259229999938,1,32,158,192,165,137,2,3,4,4.925092565,18.8776096166667,10596.6835211,3,NaN,NaN,NaN
32,5,9,SyncTheta,158,1206_4Hz.avi,orch6_zero_4Hz.wav,orch,1,4.01142669999899,0,32,165,158,192,137,2,10,3,4.925092565,18.8776096166667,10606.1335204,3,NaN,NaN,NaN
32,6,9,SyncTheta,182,1277_4Hz.avi,choir39_zero_4Hz.wav,choir,1,6.44863830000031,0,32,88,139,159,182,4,6,1,4.925092565,18.8776096166667,10611.9335328,3,NaN,NaN,NaN
32,7,9,SyncTheta,137,1303_4Hz.avi,orch10_zero_4Hz.wav,orch,1,5.28465739999956,0,32,158,137,192,165,2,7,2,4.925092565,18.8776096166667,10620.4335913,3,NaN,NaN,NaN
32,8,9,SyncTheta,165,1410_4Hz.avi,orch43_zero_4Hz.wav,orch,4,5.14141789999849,0,32,165,192,158,137,1,9,1,4.925092565,18.8776096166667,10629.0502434,3,NaN,NaN,NaN
32,9,9,SyncTheta,133,1341_4Hz.avi,acoustic14_zero_4Hz.wav,acoustic,4,5.11224240000047,0,32,96,190,133,148,3,1,2,4.925092565,18.8776096166667,10636.8336301,3,NaN,NaN,NaN
32,10,9,SyncTheta,96,1027_4Hz.avi,acoustic40_zero_4Hz.wav,acoustic,3,4.41589879999992,0,32,190,148,133,96,4,4,2,4.925092565,18.8776096166667,10644.1502827,3,NaN,NaN,NaN
32,11,9,SyncTheta,190,1427_4Hz.avi,acoustic46_zero_4Hz.wav,acoustic,4,4.43208840000079,0,32,190,148,133,96,1,14,2,4.925092565,18.8776096166667,10650.9003005,3,NaN,NaN,NaN
32,12,9,SyncTheta,191,1314_4Hz.avi,dar19_zero_4Hz.wav,dar,1,8.58849329999975,0,32,114,191,147,154,2,16,2,4.925092565,18.8776096166667,10658.5670369,3,NaN,NaN,NaN
32,13,9,SyncTheta,88,1191_4Hz.avi,choir20_zero_4Hz.wav,choir,2,3.3919934000005,0,32,139,159,88,182,3,12,3,4.925092565,18.8776096166667,10668.7503502,3,NaN,NaN,NaN
32,14,9,SyncTheta,148,1121_4Hz.avi,acoustic26_zero_4Hz.wav,acoustic,1,4.15118849999999,1,32,148,96,133,190,1,15,5,4.925092565,18.8776096166667,10674.6003667,3,NaN,NaN,NaN
32,15,9,SyncTheta,139,1192_4Hz.avi,choir5_zero_4Hz.wav,choir,4,3.74855820000084,0,32,139,88,159,182,1,8,1,4.925092565,18.8776096166667,10681.0170513,3,NaN,NaN,NaN
32,16,9,SyncTheta,147,1304_4Hz.avi,dar10_zero_4Hz.wav,dar,3,4.55670480000117,1,32,154,114,147,191,3,11,4,4.925092565,18.8776096166667,10687.9004436,3,NaN,NaN,NaN
32,1,10,NoFlicker,69,1216_half_amp.avi,choir32_half_amp.wav,choir,1,6.00124020000112,0,32,62,10,13,69,4,4,4,4.721629135,18.8776096166667,10851.700855,3,NaN,NaN,NaN
32,2,10,NoFlicker,45,1203_half_amp.avi,dar2_half_amp.wav,dar,3,8.40155950000008,0,32,45,31,2,64,1,1,5,4.721629135,18.8776096166667,10860.7509302,3,NaN,NaN,NaN
32,3,10,NoFlicker,31,1404_half_amp.avi,dar8_half_amp.wav,dar,4,3.65882839999904,1,32,2,64,45,31,4,11,5,4.721629135,18.8776096166667,10870.5509218,3,NaN,NaN,NaN
32,4,10,NoFlicker,33,1136_half_amp.avi,orch38_half_amp.wav,orch,4,6.94078950000039,0,32,33,91,74,17,1,2,2,4.721629135,18.8776096166667,10876.5842896,3,NaN,NaN,NaN
32,5,10,NoFlicker,91,1340_half_amp.avi,orch46_half_amp.wav,orch,4,6.23235550000027,1,32,74,33,17,91,4,13,3,4.721629135,18.8776096166667,10886.5176234,3,NaN,NaN,NaN
32,6,10,NoFlicker,13,1201_half_amp.avi,choir7_half_amp.wav,choir,2,7.6514057000004,1,32,10,13,69,62,2,6,1,4.721629135,18.8776096166667,10895.3176985,3,NaN,NaN,NaN
32,7,10,NoFlicker,17,1162_half_amp.avi,orch1_half_amp.wav,orch,2,6.61765970000124,0,32,17,74,91,33,1,3,2,4.721629135,18.8776096166667,10906.3010086,3,NaN,NaN,NaN
32,8,10,NoFlicker,74,1337_half_amp.avi,orch24_half_amp.wav,orch,4,4.12206680000054,0,32,74,33,91,17,1,9,2,4.721629135,18.8776096166667,10916.0510373,3,NaN,NaN,NaN
32,9,10,NoFlicker,39,1061_half_amp.avi,acoustic11_half_amp.wav,acoustic,3,5.59818350000023,0,32,1,39,58,9,2,5,1,4.721629135,18.8776096166667,10923.0344269,3,NaN,NaN,NaN
32,10,10,NoFlicker,58,1323_half_amp.avi,acoustic29_half_amp.wav,acoustic,2,4.84382610000102,0,32,39,1,58,9,3,8,3,4.721629135,18.8776096166667,10931.8177759,3,NaN,NaN,NaN
32,11,10,NoFlicker,1,1064_half_amp.avi,acoustic12_half_amp.wav,acoustic,2,3.18838739999956,0,32,1,9,39,58,1,10,5,4.721629135,18.8776096166667,10938.801103,3,NaN,NaN,NaN
32,12,10,NoFlicker,64,1098_half_amp.avi,dar11_half_amp.wav,dar,3,4.6885671,1,32,2,31,64,45,3,16,1,4.721629135,18.8776096166667,10944.984509,3,NaN,NaN,NaN
32,13,10,NoFlicker,62,1058_half_amp.avi,choir19_half_amp.wav,choir,1,4.01750390000052,0,32,69,10,13,62,4,15,2,4.721629135,18.8776096166667,10952.1678017,3,NaN,NaN,NaN
32,14,10,NoFlicker,9,1054_half_amp.avi,acoustic44_half_amp.wav,acoustic,3,4.64801170000101,0,32,9,39,1,58,1,12,2,4.721629135,18.8776096166667,10959.3178232,3,NaN,NaN,NaN
32,15,10,NoFlicker,10,1179_half_amp.avi,choir4_half_amp.wav,choir,2,3.41110990000016,1,32,62,10,69,13,2,14,4,4.721629135,18.8776096166667,10967.1345107,3,NaN,NaN,NaN
32,16,10,NoFlicker,2,1431_half_amp.avi,dar24_half_amp.wav,dar,1,2.65843930000119,1,32,2,45,31,64,1,7,4,4.721629135,18.8776096166667,10972.8678556,3,NaN,NaN,NaN
32,1,11,SyncDelta,161,1433_1.7Hz.avi,guitar2_zero_1.7Hz.wav,guitar,4,5.52740279999853,1,32,115,164,146,161,4,1,3,4.38321593833333,18.8776096166667,11129.7182833,3,NaN,NaN,NaN
32,2,11,SyncDelta,129,1286_1.7Hz.avi,synth30_zero_1.7Hz.wav,synth,3,5.28156529999978,1,32,125,131,129,127,3,3,5,4.38321593833333,18.8776096166667,11137.3849805,3,NaN,NaN,NaN
32,3,11,SyncDelta,125,1050_1.7Hz.avi,synth36_zero_1.7Hz.wav,synth,2,4.86866639999971,1,32,129,125,127,131,2,6,1,4.38321593833333,18.8776096166667,11145.2683662,3,NaN,NaN,NaN
32,4,11,SyncDelta,152,1445_1.7Hz.avi,willow2_zero_1.7Hz.wav,willow,3,7.89855100000023,1,32,120,119,152,149,3,2,2,4.38321593833333,18.8776096166667,11152.7683507,3,NaN,NaN,NaN
32,5,11,SyncDelta,119,1189_1.7Hz.avi,willow11_zero_1.7Hz.wav,willow,3,3.20252520000031,1,32,152,120,119,149,3,9,4,4.38321593833333,18.8776096166667,11162.0183781,3,NaN,NaN,NaN
32,6,11,SyncDelta,164,1087_1.7Hz.avi,guitar17_zero_1.7Hz.wav,guitar,2,3.07999469999959,1,32,161,164,146,115,2,10,5,4.38321593833333,18.8776096166667,11168.1017527,3,NaN,NaN,NaN
32,7,11,SyncDelta,149,1200_1.7Hz.avi,willow8_zero_1.7Hz.wav,willow,1,4.86155919999874,1,32,149,119,120,152,1,4,3,4.38321593833333,18.8776096166667,11173.5184387,3,NaN,NaN,NaN
32,8,11,SyncDelta,120,1365_1.7Hz.avi,willow21_zero_1.7Hz.wav,willow,4,3.75494749999962,0,32,120,149,152,119,1,7,2,4.38321593833333,18.8776096166667,11180.6684267,3,NaN,NaN,NaN
32,9,11,SyncDelta,144,1255_1.7Hz.avi,ep28_zero_1.7Hz.wav,ep,2,2.55761290000009,1,32,150,144,132,123,2,8,1,4.38321593833333,18.8776096166667,11187.1351081,3,NaN,NaN,NaN
32,10,11,SyncDelta,150,1394_1.7Hz.avi,ep11_zero_1.7Hz.wav,ep,2,4.89357779999955,1,32,123,150,144,132,2,11,3,4.38321593833333,18.8776096166667,11192.8517917,3,NaN,NaN,NaN
32,11,11,SyncDelta,132,1356_1.7Hz.avi,ep30_zero_1.7Hz.wav,ep,2,6.85777700000108,1,32,150,132,144,123,2,14,5,4.38321593833333,18.8776096166667,11201.0351559,3,NaN,NaN,NaN
32,12,11,SyncDelta,127,1411_1.7Hz.avi,synth28_zero_1.7Hz.wav,synth,1,4.51235430000088,0,32,131,125,129,127,4,13,1,4.38321593833333,18.8776096166667,11211.2185667,3,NaN,NaN,NaN
32,13,11,SyncDelta,115,1370_1.7Hz.avi,guitar9_zero_1.7Hz.wav,guitar,3,3.53278409999984,0,32,115,164,146,161,1,16,1,4.38321593833333,18.8776096166667,11218.2685454,3,NaN,NaN,NaN
32,14,11,SyncDelta,123,1067_1.7Hz.avi,ep37_zero_1.7Hz.wav,ep,4,3.75152709999929,1,32,150,132,144,123,4,15,5,4.38321593833333,18.8776096166667,11223.2852578,3,NaN,NaN,NaN
32,15,11,SyncDelta,146,1005_1.7Hz.avi,guitar14_zero_1.7Hz.wav,guitar,3,3.02458280000064,0,32,161,146,115,164,2,12,1,4.38321593833333,18.8776096166667,11229.3352611,3,NaN,NaN,NaN
32,16,11,SyncDelta,131,1366_1.7Hz.avi,synth34_zero_1.7Hz.wav,synth,1,4.76749460000065,0,32,127,129,125,131,4,5,2,4.38321593833333,18.8776096166667,11234.2686088,3,NaN,NaN,NaN
32,1,12,AsyncTheta,90,1273_4Hz.avi,guitar23_oneeighty_4Hz.wav,guitar,4,6.91847659999985,0,32,90,3,53,59,1,6,2,4.351624265,18.8776096166667,11389.8856742,3,NaN,NaN,NaN
32,2,12,AsyncTheta,8,1252_4Hz.avi,synth25_oneeighty_4Hz.wav,synth,3,7.48103850000007,0,32,54,100,61,8,4,2,5,4.351624265,18.8776096166667,11399.3190235,3,NaN,NaN,NaN
32,3,12,AsyncTheta,54,1181_4Hz.avi,synth12_oneeighty_4Hz.wav,synth,2,2.86875060000057,1,32,61,54,8,100,2,7,4,4.351624265,18.8776096166667,11409.3023968,3,NaN,NaN,NaN
32,4,12,AsyncTheta,48,1021_4Hz.avi,willow12_oneeighty_4Hz.wav,willow,3,3.06359229999907,0,32,94,48,37,18,2,1,4,4.351624265,18.8776096166667,11414.585768,3,NaN,NaN,NaN
32,5,12,AsyncTheta,18,1101_4Hz.avi,willow13_oneeighty_4Hz.wav,willow,3,4.15966950000075,0,32,18,94,48,37,1,14,4,4.351624265,18.8776096166667,11419.1024308,3,NaN,NaN,NaN
32,6,12,AsyncTheta,59,1346_4Hz.avi,guitar33_oneeighty_4Hz.wav,guitar,4,3.43343709999863,1,32,3,90,53,59,4,12,1,4.351624265,18.8776096166667,11425.6358304,3,NaN,NaN,NaN
32,7,12,AsyncTheta,94,1109_4Hz.avi,willow6_oneeighty_4Hz.wav,willow,1,4.0140021999996,1,32,94,37,48,18,1,3,4,4.351624265,18.8776096166667,11432.0358148,3,NaN,NaN,NaN
32,8,12,AsyncTheta,37,1237_4Hz.avi,willow15_oneeighty_4Hz.wav,willow,1,3.65134390000094,0,32,18,94,48,37,4,8,4,4.351624265,18.8776096166667,11438.5857982,3,NaN,NaN,NaN
32,9,12,AsyncTheta,6,1007_4Hz.avi,ep8_oneeighty_4Hz.wav,ep,1,3.41132170000128,1,32,6,41,26,101,1,4,2,4.351624265,18.8776096166667,11445.2691516,3,NaN,NaN,NaN
32,10,12,AsyncTheta,41,1132_4Hz.avi,ep10_oneeighty_4Hz.wav,ep,1,5.60188160000143,0,32,26,101,6,41,4,10,2,4.351624265,18.8776096166667,11451.7525383,3,NaN,NaN,NaN
32,11,12,AsyncTheta,26,1190_4Hz.avi,ep7_oneeighty_4Hz.wav,ep,4,4.04164270000001,0,32,26,6,41,101,1,11,4,4.351624265,18.8776096166667,11459.3525538,3,NaN,NaN,NaN
32,12,12,AsyncTheta,61,1207_4Hz.avi,synth46_oneeighty_4Hz.wav,synth,1,4.61757450000005,0,32,100,8,54,61,4,9,1,4.351624265,18.8776096166667,11465.269228,3,NaN,NaN,NaN
32,13,12,AsyncTheta,3,1156_4Hz.avi,guitar31_oneeighty_4Hz.wav,guitar,2,6.08406660000037,1,32,59,3,90,53,2,15,3,4.351624265,18.8776096166667,11472.1025884,3,NaN,NaN,NaN
32,14,12,AsyncTheta,101,1295_4Hz.avi,ep40_oneeighty_4Hz.wav,ep,3,4.77715379999972,1,32,26,6,101,41,3,16,3,4.351624265,18.8776096166667,11481.3025827,3,NaN,NaN,NaN
32,15,12,AsyncTheta,53,1197_4Hz.avi,guitar46_oneeighty_4Hz.wav,guitar,3,5.7769315000005,1,32,59,3,53,90,3,13,4,4.351624265,18.8776096166667,11488.4026349,3,NaN,NaN,NaN
32,16,12,AsyncTheta,100,1107_4Hz.avi,synth23_oneeighty_4Hz.wav,synth,2,3.72793549999915,0,32,100,8,54,61,1,5,3,4.351624265,18.8776096166667,11496.5693078,3,NaN,NaN,NaN
